timestamp,accelX,accelY,accelZ
2025-02-17 12:09:57,0.08,-0.26,0.98
2025-02-17 12:09:57,0.08,-0.26,0.97
2025-02-17 12:09:57,0.07,-0.26,0.98
2025-02-17 12:09:57,0.08,-0.26,0.97
2025-02-17 12:09:57,0.07,-0.26,0.98
2025-02-17 12:09:57,0.08,-0.26,0.97
2025-02-17 12:09:58,0.08,-0.26,0.98
2025-02-17 12:09:58,0.08,-0.26,0.97
2025-02-17 12:09:58,0.08,-0.26,0.98
2025-02-17 12:09:58,0.08,-0.26,0.97
2025-02-17 12:09:58,0.07,-0.26,0.97
2025-02-17 12:09:58,0.07,-0.26,0.97
2025-02-17 12:09:58,0.07,-0.26,0.97
2025-02-17 12:09:58,0.07,-0.26,0.97
2025-02-17 12:09:58,0.07,-0.26,0.97
2025-02-17 12:09:58,0.07,-0.26,0.97
2025-02-17 12:09:59,0.07,-0.26,0.97
2025-02-17 12:09:59,0.07,-0.26,0.97
2025-02-17 12:09:59,0.07,-0.26,0.97
2025-02-17 12:09:59,0.08,-0.26,0.97
2025-02-17 12:09:59,0.08,-0.26,0.97
2025-02-17 12:09:59,0.07,-0.26,0.97
2025-02-17 12:09:59,0.07,-0.26,0.97
2025-02-17 12:09:59,0.07,-0.26,0.97
2025-02-17 12:09:59,0.08,-0.26,0.97
2025-02-17 12:09:59,0.08,-0.26,0.97
2025-02-17 12:10:00,0.07,-0.26,0.97
2025-02-17 12:10:00,0.08,-0.26,0.98
2025-02-17 12:10:00,0.07,-0.26,0.97
2025-02-17 12:10:00,0.07,-0.26,0.98
2025-02-17 12:10:00,0.08,-0.26,0.98
2025-02-17 12:10:00,0.07,-0.26,0.97
2025-02-17 12:10:00,0.08,-0.24,0.94
2025-02-17 12:10:00,0.08,-0.27,0.97
2025-02-17 12:10:00,0.08,-0.25,0.98
2025-02-17 12:10:01,0.07,-0.26,0.97
2025-02-17 12:10:01,0.08,-0.25,1.02
2025-02-17 12:10:01,0.08,-0.26,0.98
2025-02-17 12:10:01,0.08,-0.26,0.95
2025-02-17 12:10:01,0.08,-0.26,0.98
2025-02-17 12:10:01,0.07,-0.25,0.99
2025-02-17 12:10:01,0.07,-0.26,1.0
2025-02-17 12:10:01,0.07,-0.25,0.98
2025-02-17 12:10:01,0.07,-0.26,0.96
2025-02-17 12:10:01,0.07,-0.26,0.96
2025-02-17 12:10:02,0.08,-0.27,0.93
2025-02-17 12:10:02,0.09,-0.27,0.93
2025-02-17 12:10:02,0.08,-0.27,0.94
2025-02-17 12:10:02,0.07,-0.25,1.01
2025-02-17 12:10:02,0.08,-0.27,0.96
2025-02-17 12:10:02,0.06,-0.26,1.01
2025-02-17 12:10:02,0.07,-0.25,1.02
2025-02-17 12:10:02,0.09,-0.25,0.95
2025-02-17 12:10:02,0.08,-0.27,0.93
2025-02-17 12:10:02,0.07,-0.27,0.99
2025-02-17 12:10:03,0.04,-0.29,0.98
2025-02-17 12:10:03,0.05,-0.25,0.97
2025-02-17 12:10:03,0.08,-0.25,1.01
2025-02-17 12:10:03,0.09,-0.23,0.97
2025-02-17 12:10:03,0.08,-0.27,0.95
2025-02-17 12:10:03,0.08,-0.27,0.96
2025-02-17 12:10:03,0.07,-0.26,0.98
2025-02-17 12:10:03,0.08,-0.27,0.9
2025-02-17 12:10:03,0.07,-0.25,1.0
2025-02-17 12:10:04,0.08,-0.26,0.98
2025-02-17 12:10:04,0.07,-0.26,1.0
2025-02-17 12:10:04,0.08,-0.26,0.97
2025-02-17 12:10:04,0.07,-0.26,0.97
2025-02-17 12:10:04,0.08,-0.26,0.96
2025-02-17 12:10:04,0.07,-0.26,0.99
2025-02-17 12:10:04,0.08,-0.26,0.97
2025-02-17 12:10:04,0.07,-0.26,0.97
2025-02-17 12:10:04,0.08,-0.28,0.86
2025-02-17 12:10:04,0.07,-0.26,0.95
2025-02-17 12:10:05,0.07,-0.25,1.0
2025-02-17 12:10:05,0.08,-0.26,0.97
2025-02-17 12:10:05,0.07,-0.26,0.96
2025-02-17 12:10:05,0.07,-0.26,0.98
2025-02-17 12:10:05,0.07,-0.26,0.97
2025-02-17 12:10:05,0.07,-0.26,0.97
2025-02-17 12:10:05,0.07,-0.26,0.98
2025-02-17 12:10:05,0.08,-0.25,1.03
2025-02-17 12:10:05,0.07,-0.25,1.0
2025-02-17 12:10:05,0.08,-0.27,0.95
2025-02-17 12:10:06,0.07,-0.26,0.97
2025-02-17 12:10:06,0.07,-0.26,0.98
2025-02-17 12:10:06,0.07,-0.25,0.99
2025-02-17 12:10:06,0.08,-0.27,0.95
2025-02-17 12:10:06,0.07,-0.26,0.97
2025-02-17 12:10:06,0.07,-0.26,0.99
2025-02-17 12:10:06,0.07,-0.26,0.95
2025-02-17 12:10:06,0.07,-0.26,0.96
2025-02-17 12:10:06,0.07,-0.26,0.99
2025-02-17 12:10:07,0.07,-0.26,0.97
2025-02-17 12:10:07,0.08,-0.29,0.92
2025-02-17 12:10:07,0.06,-0.25,1.02
2025-02-17 12:10:07,0.08,-0.26,0.97
2025-02-17 12:10:07,0.07,-0.26,0.99
2025-02-17 12:10:07,0.08,-0.23,1.11
2025-02-17 12:10:07,0.07,-0.25,0.98
2025-02-17 12:10:07,0.08,-0.27,0.93
2025-02-17 12:10:07,0.07,-0.28,0.86
2025-02-17 12:10:07,0.07,-0.26,0.97
2025-02-17 12:10:08,0.08,-0.26,0.97
2025-02-17 12:10:08,0.08,-0.24,0.97
2025-02-17 12:10:08,0.09,-0.27,0.94
2025-02-17 12:10:08,0.08,-0.27,0.95
2025-02-17 12:10:08,0.07,-0.25,1.0
2025-02-17 12:10:08,0.06,-0.25,0.88
2025-02-17 12:10:08,0.08,-0.27,0.88
2025-02-17 12:10:08,0.07,-0.26,0.97
2025-02-17 12:10:08,0.08,-0.26,0.99
2025-02-17 12:10:08,0.07,-0.26,1.0
2025-02-17 12:10:09,0.07,-0.25,1.01
2025-02-17 12:10:09,0.07,-0.25,1.0
2025-02-17 12:10:09,0.08,-0.26,0.98
2025-02-17 12:10:09,0.09,-0.2,1.29
2025-02-17 12:10:09,0.08,-0.23,1.07
2025-02-17 12:10:09,0.08,-0.26,0.96
2025-02-17 12:10:09,0.09,-0.2,1.27
2025-02-17 12:10:09,0.08,-0.23,1.08
2025-02-17 12:10:09,0.08,-0.26,0.96
2025-02-17 12:10:09,0.09,-0.21,1.23
2025-02-17 12:10:10,0.08,-0.24,1.05
2025-02-17 12:10:10,0.08,-0.26,0.95
2025-02-17 12:10:10,0.07,-0.32,0.88
2025-02-17 12:10:10,0.05,-0.25,1.02
2025-02-17 12:10:10,0.08,-0.26,0.98
2025-02-17 12:10:10,0.07,-0.25,1.02
2025-02-17 12:10:10,0.08,-0.25,1.05
2025-02-17 12:10:10,0.07,-0.26,0.99
2025-02-17 12:10:10,0.08,-0.26,0.95
2025-02-17 12:10:11,0.07,-0.26,0.97
2025-02-17 12:10:11,0.08,-0.26,0.97
2025-02-17 12:10:11,0.07,-0.26,0.98
2025-02-17 12:10:11,0.08,-0.26,0.97
2025-02-17 12:10:11,0.08,-0.27,0.91
2025-02-17 12:10:11,0.07,-0.25,0.99
2025-02-17 12:10:11,0.08,-0.26,0.99
2025-02-17 12:10:11,0.07,-0.26,0.99
2025-02-17 12:10:11,0.08,-0.27,0.94
2025-02-17 12:10:11,0.07,-0.26,0.99
2025-02-17 12:10:12,0.07,-0.26,0.99
2025-02-17 12:10:12,0.08,-0.26,0.98
2025-02-17 12:10:12,0.07,-0.26,0.97
2025-02-17 12:10:12,0.07,-0.25,1.0
2025-02-17 12:10:12,0.08,-0.29,0.94
2025-02-17 12:10:12,0.07,-0.27,0.99
2025-02-17 12:10:12,0.07,-0.24,1.04
2025-02-17 12:10:12,0.08,-0.26,0.96
2025-02-17 12:10:12,0.08,-0.26,0.96
2025-02-17 12:10:12,0.07,-0.26,0.98
2025-02-17 12:10:13,0.08,-0.26,0.98
2025-02-17 12:10:13,0.08,-0.26,0.97
2025-02-17 12:10:13,0.07,-0.26,0.99
2025-02-17 12:10:13,0.08,-0.26,0.94
2025-02-17 12:10:13,0.08,-0.27,0.94
2025-02-17 12:10:13,0.07,-0.26,0.99
2025-02-17 12:10:13,0.07,-0.26,0.9
2025-02-17 12:10:13,0.08,-0.27,0.91
2025-02-17 12:10:13,0.07,-0.25,0.99
2025-02-17 12:10:14,0.07,-0.26,0.87
2025-02-17 12:10:14,0.08,-0.26,0.88
2025-02-17 12:10:14,0.11,-0.21,0.91
2025-02-17 12:10:14,0.1,-0.26,0.9
2025-02-17 12:10:14,0.08,-0.28,0.95
2025-02-17 12:10:14,0.09,-0.25,0.86
2025-02-17 12:10:14,0.09,-0.27,0.97
2025-02-17 12:10:14,0.09,-0.27,0.98
2025-02-17 12:10:14,0.08,-0.22,0.94
2025-02-17 12:10:15,0.09,-0.26,0.96
2025-02-17 12:10:15,0.09,-0.27,0.97
2025-02-17 12:10:15,0.09,-0.18,0.92
2025-02-17 12:10:15,0.1,-0.25,0.89
2025-02-17 12:10:15,0.09,-0.28,0.95
2025-02-17 12:10:15,0.07,-0.28,0.91
2025-02-17 12:10:15,0.07,-0.28,1.0
2025-02-17 12:10:15,0.07,-0.24,1.04
2025-02-17 12:10:15,0.08,-0.2,1.28
2025-02-17 12:10:15,0.08,-0.24,1.06
2025-02-17 12:10:16,0.08,-0.27,0.96
2025-02-17 12:10:16,0.09,-0.19,1.32
2025-02-17 12:10:16,0.08,-0.24,1.06
2025-02-17 12:10:16,0.08,-0.25,0.99
2025-02-17 12:10:16,0.06,-0.24,1.17
2025-02-17 12:10:16,0.07,-0.25,1.05
2025-02-17 12:10:16,0.08,-0.26,0.99
2025-02-17 12:10:16,0.06,-0.26,1.19
2025-02-17 12:10:16,0.07,-0.25,1.05
2025-02-17 12:10:16,0.08,-0.26,1.02
2025-02-17 12:10:17,0.1,-0.19,1.27
2025-02-17 12:10:17,0.09,-0.23,1.09
2025-02-17 12:10:17,0.09,-0.26,0.96
2025-02-17 12:10:17,0.03,-0.33,1.08
2025-02-17 12:10:17,0.06,-0.23,1.11
2025-02-17 12:10:17,0.1,-0.24,1.06
2025-02-17 12:10:17,0.09,-0.2,1.27
2025-02-17 12:10:17,0.1,-0.24,1.01
2025-02-17 12:10:17,0.08,-0.26,0.93
2025-02-17 12:10:18,0.07,-0.28,0.83
2025-02-17 12:10:18,0.1,-0.28,0.84
2025-02-17 12:10:18,0.08,-0.28,0.92
2025-02-17 12:10:18,0.08,-0.25,1.02
2025-02-17 12:10:18,0.08,-0.25,1.02
2025-02-17 12:10:18,0.09,-0.27,0.95
2025-02-17 12:10:18,0.09,-0.26,0.97
2025-02-17 12:10:18,0.08,-0.26,0.98
2025-02-17 12:10:18,0.09,-0.26,0.98
2025-02-17 12:10:18,0.09,-0.26,0.97
2025-02-17 12:10:19,0.09,-0.26,0.97
2025-02-17 12:10:19,0.09,-0.26,0.98
2025-02-17 12:10:19,0.09,-0.26,0.97
2025-02-17 12:10:19,0.09,-0.26,0.98
2025-02-17 12:10:19,0.09,-0.26,0.97
2025-02-17 12:10:19,0.08,-0.26,0.98
2025-02-17 12:10:19,0.09,-0.26,0.94
2025-02-17 12:10:19,0.09,-0.26,0.96
2025-02-17 12:10:19,0.08,-0.26,0.99
2025-02-17 12:10:19,0.08,-0.26,1.01
2025-02-17 12:10:20,0.07,-0.24,1.02
2025-02-17 12:10:20,0.09,-0.26,0.97
2025-02-17 12:10:20,0.08,-0.26,0.98
2025-02-17 12:10:20,0.1,-0.25,0.92
2025-02-17 12:10:20,0.08,-0.26,0.99
2025-02-17 12:10:20,0.09,-0.26,0.99
2025-02-17 12:10:20,0.08,-0.26,0.98
2025-02-17 12:10:20,0.08,-0.26,0.99
2025-02-17 12:10:20,0.09,-0.26,0.96
2025-02-17 12:10:21,0.07,-0.25,1.02
2025-02-17 12:10:21,0.09,-0.26,0.97
2025-02-17 12:10:21,0.08,-0.26,0.98
2025-02-17 12:10:21,0.09,-0.26,0.96
2025-02-17 12:10:21,0.08,-0.26,1.0
2025-02-17 12:10:21,0.09,-0.27,0.95
2025-02-17 12:10:21,0.09,-0.27,0.89
2025-02-17 12:10:21,0.09,-0.28,0.92
2025-02-17 12:10:21,0.08,-0.25,1.02
2025-02-17 12:10:21,0.09,-0.26,0.97
2025-02-17 12:10:22,0.08,-0.26,0.99
2025-02-17 12:10:22,0.08,-0.25,1.02
2025-02-17 12:10:22,0.09,-0.28,0.94
2025-02-17 12:10:22,0.09,-0.26,0.98
2025-02-17 12:10:22,0.08,-0.25,1.02
2025-02-17 12:10:22,0.09,-0.26,0.98
2025-02-17 12:10:22,0.09,-0.27,0.94
2025-02-17 12:10:22,0.09,-0.26,0.96
2025-02-17 12:10:22,0.08,-0.26,0.99
2025-02-17 12:10:22,0.09,-0.26,0.97
2025-02-17 12:10:23,0.09,-0.26,0.97
2025-02-17 12:10:23,0.09,-0.24,0.96
2025-02-17 12:10:23,0.09,-0.27,0.98
2025-02-17 12:10:23,0.09,-0.27,0.97
2025-02-17 12:10:23,0.08,-0.26,0.98
2025-02-17 12:10:23,0.09,-0.27,0.96
2025-02-17 12:10:23,0.09,-0.26,0.97
2025-02-17 12:10:23,0.09,-0.26,0.98
2025-02-17 12:10:23,0.09,-0.26,0.97
2025-02-17 12:10:23,0.09,-0.27,0.96
2025-02-17 12:10:24,0.08,-0.26,0.98
2025-02-17 12:10:24,0.09,-0.26,0.97
2025-02-17 12:10:24,0.09,-0.26,0.96
2025-02-17 12:10:24,0.09,-0.26,0.97
2025-02-17 12:10:24,0.09,-0.25,0.99
2025-02-17 12:10:24,0.09,-0.27,0.97
2025-02-17 12:10:24,0.09,-0.26,0.97
2025-02-17 12:10:24,0.09,-0.26,0.96
2025-02-17 12:10:24,0.09,-0.26,0.96
2025-02-17 12:10:25,0.09,-0.27,0.96
2025-02-17 12:10:25,0.08,-0.26,0.97
2025-02-17 12:10:25,0.09,-0.27,0.95
2025-02-17 12:10:25,0.07,-0.22,1.08
2025-02-17 12:10:25,0.1,-0.26,0.97
2025-02-17 12:10:25,0.09,-0.28,0.92
2025-02-17 12:10:25,0.09,-0.26,0.98
2025-02-17 12:10:25,0.08,-0.26,0.99
2025-02-17 12:10:25,0.09,-0.26,0.97
2025-02-17 12:10:25,0.09,-0.26,0.97
2025-02-17 12:10:26,0.09,-0.26,0.98
2025-02-17 12:10:26,0.09,-0.26,0.97
2025-02-17 12:10:26,0.09,-0.26,0.97
2025-02-17 12:10:26,0.09,-0.27,0.95
2025-02-17 12:10:26,0.09,-0.26,0.98
2025-02-17 12:10:26,0.09,-0.26,0.97
2025-02-17 12:10:26,0.1,-0.27,0.89
2025-02-17 12:10:26,0.07,-0.28,0.92
2025-02-17 12:10:26,0.09,-0.25,1.01
2025-02-17 12:10:26,0.08,-0.25,1.01
2025-02-17 12:10:27,0.1,-0.23,0.88
2025-02-17 12:10:27,0.1,-0.31,0.81
2025-02-17 12:10:27,0.08,-0.28,0.94
2025-02-17 12:10:27,0.1,-0.25,0.91
2025-02-17 12:10:27,0.09,-0.27,0.93
2025-02-17 12:10:27,0.08,-0.25,1.0
2025-02-17 12:10:27,0.09,-0.26,0.95
2025-02-17 12:10:27,0.1,-0.28,0.91
2025-02-17 12:10:27,0.1,-0.33,0.87
2025-02-17 12:10:27,0.07,-0.25,1.02
2025-02-17 12:10:28,0.09,-0.25,1.02
2025-02-17 12:10:28,0.1,-0.29,0.94
2025-02-17 12:10:28,0.08,-0.26,0.97
2025-02-17 12:10:28,0.09,-0.25,1.0
2025-02-17 12:10:28,0.06,-0.24,1.15
2025-02-17 12:10:28,0.11,-0.25,1.04
2025-02-17 12:10:28,0.09,-0.27,0.92
2025-02-17 12:10:28,0.09,-0.27,0.95
2025-02-17 12:10:28,0.08,-0.25,1.0
2025-02-17 12:10:29,0.09,-0.26,0.97
2025-02-17 12:10:29,0.09,-0.26,0.97
2025-02-17 12:10:29,0.09,-0.26,0.97
2025-02-17 12:10:29,0.09,-0.25,0.96
2025-02-17 12:10:29,0.09,-0.29,0.89
2025-02-17 12:10:29,0.08,-0.25,1.0
2025-02-17 12:10:29,0.09,-0.26,0.98
2025-02-17 12:10:29,0.09,-0.26,0.98
2025-02-17 12:10:29,0.09,-0.26,0.96
2025-02-17 12:10:29,0.09,-0.26,0.98
2025-02-17 12:10:30,0.09,-0.26,0.97
2025-02-17 12:10:30,0.09,-0.26,0.98
2025-02-17 12:10:30,0.09,-0.26,0.97
2025-02-17 12:10:30,0.09,-0.26,0.98
2025-02-17 12:10:30,0.09,-0.26,0.97
2025-02-17 12:10:30,0.09,-0.26,0.97
2025-02-17 12:10:30,0.09,-0.26,0.97
2025-02-17 12:10:30,0.09,-0.26,0.97
2025-02-17 12:10:30,0.09,-0.26,0.97
2025-02-17 12:10:30,0.09,-0.26,0.97
2025-02-17 12:10:31,0.09,-0.26,0.97
2025-02-17 12:10:31,0.09,-0.26,0.97
2025-02-17 12:10:31,0.09,-0.26,0.97
2025-02-17 12:10:31,0.09,-0.26,0.97
2025-02-17 12:10:31,0.09,-0.26,0.97
2025-02-17 12:10:31,0.09,-0.26,0.97
2025-02-17 12:10:31,0.09,-0.26,0.97
2025-02-17 12:10:31,0.09,-0.26,0.97
2025-02-17 12:10:31,0.09,-0.26,0.97
2025-02-17 12:10:32,0.09,-0.26,0.97
2025-02-17 12:10:32,0.09,-0.26,0.97
2025-02-17 12:10:32,0.09,-0.26,0.97
2025-02-17 12:10:32,0.09,-0.26,0.97
2025-02-17 12:10:32,0.09,-0.26,0.97
2025-02-17 12:10:32,0.09,-0.26,0.97
2025-02-17 12:10:32,0.09,-0.26,0.97
2025-02-17 12:10:32,0.09,-0.26,0.97
2025-02-17 12:10:32,0.09,-0.26,0.97
2025-02-17 12:10:32,0.09,-0.26,0.97
2025-02-17 12:10:33,0.09,-0.26,0.97
2025-02-17 12:10:33,0.09,-0.26,0.97
2025-02-17 12:10:33,0.09,-0.26,0.97
2025-02-17 12:10:33,0.09,-0.26,0.97
2025-02-17 12:10:33,0.09,-0.26,0.97
2025-02-17 12:10:33,0.09,-0.26,0.97
2025-02-17 12:10:33,0.09,-0.26,0.97
2025-02-17 12:10:33,0.09,-0.26,0.97
2025-02-17 12:10:33,0.09,-0.26,0.97
2025-02-17 12:10:33,0.09,-0.26,0.97
2025-02-17 12:10:34,0.09,-0.26,0.97
2025-02-17 12:10:34,0.09,-0.26,0.97
2025-02-17 12:10:34,0.09,-0.26,0.97
2025-02-17 12:10:34,0.09,-0.26,0.97
2025-02-17 12:10:34,0.09,-0.26,0.97
2025-02-17 12:10:34,0.09,-0.26,0.98
2025-02-17 12:10:34,0.09,-0.26,0.98
2025-02-17 12:10:34,0.09,-0.26,0.97
2025-02-17 12:10:34,0.09,-0.26,0.97
2025-02-17 12:10:34,0.09,-0.26,0.97
2025-02-17 12:10:35,0.09,-0.26,0.97
2025-02-17 12:10:35,0.09,-0.26,0.97
2025-02-17 12:10:35,0.09,-0.26,0.97
2025-02-17 12:10:35,0.09,-0.26,0.97
2025-02-17 12:10:35,0.09,-0.26,0.97
2025-02-17 12:10:35,0.09,-0.26,0.97
2025-02-17 12:10:35,0.09,-0.26,0.97
2025-02-17 12:10:35,0.09,-0.26,0.97
2025-02-17 12:10:35,0.09,-0.26,0.97
2025-02-17 12:10:36,0.09,-0.26,0.97
2025-02-17 12:10:36,0.09,-0.26,0.97
2025-02-17 12:10:36,0.09,-0.26,0.98
2025-02-17 12:10:36,0.09,-0.26,0.97
2025-02-17 12:10:36,0.09,-0.26,0.97
2025-02-17 12:10:36,0.09,-0.26,0.97
2025-02-17 12:10:36,0.09,-0.26,0.97
2025-02-17 12:10:36,0.09,-0.26,0.97
2025-02-17 12:10:36,0.09,-0.26,0.97
2025-02-17 12:10:36,0.09,-0.26,0.97
2025-02-17 12:10:37,0.09,-0.26,0.97
2025-02-17 12:10:37,0.09,-0.26,0.97
2025-02-17 12:10:37,0.09,-0.26,0.97
2025-02-17 12:10:37,0.09,-0.26,0.97
2025-02-17 12:10:37,0.09,-0.26,0.97
2025-02-17 12:10:37,0.09,-0.26,0.97
2025-02-17 12:10:37,0.09,-0.26,0.97
2025-02-17 12:10:37,0.09,-0.26,0.97
2025-02-17 12:10:37,0.09,-0.26,0.97
2025-02-17 12:10:37,0.09,-0.26,0.97
2025-02-17 12:10:38,0.09,-0.26,0.97
2025-02-17 12:10:38,0.09,-0.26,0.97
2025-02-17 12:10:38,0.09,-0.26,0.97
2025-02-17 12:10:38,0.09,-0.26,0.97
2025-02-17 12:10:38,0.09,-0.26,0.97
2025-02-17 12:10:38,0.09,-0.26,0.97
2025-02-17 12:10:38,0.09,-0.26,0.97
2025-02-17 12:10:38,0.09,-0.26,0.97
2025-02-17 12:10:39,0.09,-0.26,0.97
2025-02-17 12:10:39,0.09,-0.26,0.97
2025-02-17 12:10:39,0.09,-0.26,0.97
2025-02-17 12:10:39,0.09,-0.26,0.97
2025-02-17 12:10:39,0.09,-0.26,0.97
2025-02-17 12:10:39,0.09,-0.26,0.97
2025-02-17 12:10:39,0.09,-0.26,0.97
2025-02-17 12:10:39,0.09,-0.26,0.97
2025-02-17 12:10:39,0.09,-0.26,0.97
2025-02-17 12:10:39,0.09,-0.26,0.97
2025-02-17 12:10:40,0.09,-0.26,0.97
2025-02-17 12:10:40,0.09,-0.26,0.97
2025-02-17 12:10:40,0.09,-0.26,0.97
2025-02-17 12:10:40,0.09,-0.26,0.97
2025-02-17 12:10:40,0.09,-0.26,0.97
2025-02-17 12:10:40,0.09,-0.26,0.97
2025-02-17 12:10:40,0.09,-0.26,0.97
2025-02-17 12:10:40,0.09,-0.26,0.97
2025-02-17 12:10:40,0.09,-0.26,0.97
2025-02-17 12:10:40,0.09,-0.26,0.97
2025-02-17 12:10:41,0.09,-0.26,0.97
2025-02-17 12:10:41,0.09,-0.26,0.97
2025-02-17 12:10:41,0.09,-0.26,0.97
2025-02-17 12:10:41,0.09,-0.26,0.97
2025-02-17 12:10:41,0.09,-0.26,0.97
2025-02-17 12:10:41,0.09,-0.26,0.97
2025-02-17 12:10:41,0.09,-0.26,0.97
2025-02-17 12:10:41,0.09,-0.26,0.97
2025-02-17 12:10:41,0.09,-0.26,0.97
2025-02-17 12:10:42,0.09,-0.26,0.97
2025-02-17 12:10:42,0.09,-0.26,0.97
2025-02-17 12:10:42,0.09,-0.26,0.97
2025-02-17 12:10:42,0.09,-0.26,0.97
2025-02-17 12:10:42,0.09,-0.26,0.97
2025-02-17 12:10:42,0.09,-0.26,0.97
2025-02-17 12:10:42,0.09,-0.26,0.97
2025-02-17 12:10:42,0.09,-0.26,0.97
2025-02-17 12:10:42,0.09,-0.26,0.97
2025-02-17 12:10:42,0.09,-0.26,0.97
2025-02-17 12:10:43,0.09,-0.26,0.97
2025-02-17 12:10:43,0.09,-0.26,0.97
2025-02-17 12:10:43,0.09,-0.26,0.97
2025-02-17 12:10:43,0.09,-0.26,0.97
2025-02-17 12:10:43,0.09,-0.26,0.97
2025-02-17 12:10:43,0.09,-0.26,0.97
2025-02-17 12:10:43,0.09,-0.26,0.97
2025-02-17 12:10:43,0.09,-0.26,0.97
2025-02-17 12:10:43,0.09,-0.26,0.97
2025-02-17 12:10:43,0.09,-0.26,0.97
2025-02-17 12:10:44,0.09,-0.26,0.97
2025-02-17 12:10:44,0.09,-0.26,0.97
2025-02-17 12:10:44,0.09,-0.26,0.97
2025-02-17 12:10:44,0.09,-0.26,0.97
2025-02-17 12:10:44,0.09,-0.26,0.97
2025-02-17 12:10:44,0.09,-0.26,0.97
2025-02-17 12:10:44,0.09,-0.26,0.97
2025-02-17 12:10:44,0.09,-0.26,0.97
2025-02-17 12:10:44,0.09,-0.26,0.97
2025-02-17 12:10:45,0.09,-0.26,0.97
2025-02-17 12:10:45,0.09,-0.26,0.97
2025-02-17 12:10:45,0.09,-0.26,0.97
2025-02-17 12:10:45,0.09,-0.26,0.97
2025-02-17 12:10:45,0.09,-0.26,0.97
2025-02-17 12:10:45,0.09,-0.26,0.97
2025-02-17 12:10:45,0.09,-0.26,0.97
2025-02-17 12:10:45,0.09,-0.26,0.97
2025-02-17 12:10:45,0.09,-0.26,0.97
2025-02-17 12:10:45,0.09,-0.26,0.97
2025-02-17 12:10:46,0.09,-0.26,0.97
2025-02-17 12:10:46,0.09,-0.26,0.97
2025-02-17 12:10:46,0.09,-0.26,0.97
2025-02-17 12:10:46,0.09,-0.26,0.97
2025-02-17 12:10:46,0.09,-0.26,0.97
2025-02-17 12:10:46,0.09,-0.26,0.97
2025-02-17 12:10:46,0.09,-0.26,0.97
2025-02-17 12:10:46,0.09,-0.26,0.97
2025-02-17 12:10:46,0.09,-0.26,0.97
2025-02-17 12:10:46,0.09,-0.26,0.97
2025-02-17 12:10:47,0.09,-0.26,0.97
2025-02-17 12:10:47,0.09,-0.26,0.97
2025-02-17 12:10:47,0.09,-0.26,0.97
2025-02-17 12:10:47,0.09,-0.26,0.97
2025-02-17 12:10:47,0.09,-0.26,0.97
2025-02-17 12:10:47,0.09,-0.26,0.97
2025-02-17 12:10:47,0.09,-0.26,0.97
2025-02-17 12:10:47,0.09,-0.26,0.97
2025-02-17 12:10:47,0.09,-0.26,0.97
2025-02-17 12:10:47,0.09,-0.26,0.97
2025-02-17 12:10:48,0.09,-0.26,0.97
2025-02-17 12:10:48,0.09,-0.26,0.97
2025-02-17 12:10:48,0.09,-0.26,0.97
2025-02-17 12:10:48,0.09,-0.26,0.97
2025-02-17 12:10:48,0.09,-0.26,0.97
2025-02-17 12:10:48,0.09,-0.26,0.97
2025-02-17 12:10:48,0.09,-0.26,0.97
2025-02-17 12:10:48,0.09,-0.26,0.97
2025-02-17 12:10:48,0.09,-0.26,0.97
2025-02-17 12:10:49,0.09,-0.26,0.97
2025-02-17 12:10:49,0.09,-0.26,0.97
2025-02-17 12:10:49,0.09,-0.26,0.97
2025-02-17 12:10:49,0.09,-0.26,0.97
2025-02-17 12:10:49,0.09,-0.26,0.97
2025-02-17 12:10:49,0.09,-0.26,0.97
2025-02-17 12:10:49,0.09,-0.26,0.97
2025-02-17 12:10:49,0.09,-0.26,0.97
2025-02-17 12:10:49,0.09,-0.26,0.97
2025-02-17 12:10:49,0.09,-0.26,0.97
2025-02-17 12:10:50,0.09,-0.26,0.97
2025-02-17 12:10:50,0.09,-0.26,0.97
2025-02-17 12:10:50,0.09,-0.26,0.97
2025-02-17 12:10:50,0.09,-0.26,0.97
2025-02-17 12:10:50,0.09,-0.26,0.97
2025-02-17 12:10:50,0.09,-0.26,0.97
2025-02-17 12:10:50,0.09,-0.26,0.97
2025-02-17 12:10:50,0.09,-0.26,0.97
2025-02-17 12:10:50,0.09,-0.26,0.97
2025-02-17 12:10:50,0.09,-0.26,0.97
2025-02-17 12:10:51,0.09,-0.26,0.97
2025-02-17 12:10:51,0.09,-0.26,0.97
2025-02-17 12:10:51,0.09,-0.26,0.97
2025-02-17 12:10:51,0.09,-0.26,0.97
2025-02-17 12:10:51,0.09,-0.26,0.97
2025-02-17 12:10:51,0.09,-0.26,0.97
2025-02-17 12:10:51,0.09,-0.26,0.97
2025-02-17 12:10:51,0.09,-0.26,0.97
2025-02-17 12:10:51,0.09,-0.26,0.97
2025-02-17 12:10:52,0.09,-0.26,0.97
2025-02-17 12:10:52,0.09,-0.26,0.97
2025-02-17 12:10:52,0.09,-0.26,0.97
2025-02-17 12:10:52,0.09,-0.26,0.97
2025-02-17 12:10:52,0.09,-0.26,0.97
2025-02-17 12:10:52,0.09,-0.26,0.97
2025-02-17 12:10:52,0.09,-0.26,0.97
2025-02-17 12:10:52,0.09,-0.26,0.97
2025-02-17 12:10:52,0.09,-0.26,0.97
2025-02-17 12:10:52,0.09,-0.26,0.97
2025-02-17 12:10:53,0.09,-0.26,0.97
2025-02-17 12:10:53,0.09,-0.26,0.97
2025-02-17 12:10:53,0.09,-0.26,0.97
2025-02-17 12:10:53,0.09,-0.26,0.97
2025-02-17 12:10:53,0.09,-0.26,0.96
2025-02-17 12:10:53,0.09,-0.26,0.97
2025-02-17 12:10:53,0.09,-0.26,0.97
2025-02-17 12:10:53,0.09,-0.26,0.97
2025-02-17 12:10:53,0.09,-0.26,0.97
2025-02-17 12:10:53,0.09,-0.26,0.97
2025-02-17 12:10:54,0.09,-0.26,0.97
2025-02-17 12:10:54,0.09,-0.26,0.97
2025-02-17 12:10:54,0.09,-0.26,0.97
2025-02-17 12:10:54,0.09,-0.26,0.97
2025-02-17 12:10:54,0.09,-0.26,0.97
2025-02-17 12:10:54,0.09,-0.26,0.97
2025-02-17 12:10:54,0.09,-0.26,0.97
2025-02-17 12:10:54,0.09,-0.26,0.97
2025-02-17 12:10:54,0.09,-0.26,0.97
2025-02-17 12:10:55,0.09,-0.26,0.97
2025-02-17 12:10:55,0.09,-0.26,0.97
2025-02-17 12:10:55,0.09,-0.26,0.97
2025-02-17 12:10:55,0.09,-0.26,0.97
2025-02-17 12:10:55,0.09,-0.26,0.97
2025-02-17 12:10:55,0.09,-0.26,0.97
2025-02-17 12:10:55,0.09,-0.26,0.97
2025-02-17 12:10:55,0.09,-0.26,0.97
2025-02-17 12:10:55,0.09,-0.26,0.97
2025-02-17 12:10:55,0.09,-0.26,0.97
2025-02-17 12:10:56,0.09,-0.26,0.97
2025-02-17 12:10:56,0.09,-0.26,0.97
2025-02-17 12:10:56,0.09,-0.26,0.97
2025-02-17 12:10:56,0.09,-0.26,0.97
2025-02-17 12:10:56,0.09,-0.26,0.97
2025-02-17 12:10:56,0.09,-0.26,0.97
2025-02-17 12:10:56,0.09,-0.26,0.97
2025-02-17 12:10:56,0.09,-0.26,0.97
2025-02-17 12:10:56,0.09,-0.26,0.97
2025-02-17 12:10:56,0.09,-0.26,0.97
2025-02-17 12:10:57,0.09,-0.26,0.97
2025-02-17 12:10:57,0.09,-0.26,0.97
2025-02-17 12:10:57,0.09,-0.26,0.97
2025-02-17 12:10:57,0.09,-0.26,0.97
2025-02-17 12:10:57,0.09,-0.26,0.97
2025-02-17 12:10:57,0.09,-0.26,0.97
2025-02-17 12:10:57,0.09,-0.26,0.97
2025-02-17 12:10:57,0.09,-0.26,0.97
2025-02-17 12:10:57,0.09,-0.26,0.97
2025-02-17 12:10:58,0.09,-0.26,0.97
2025-02-17 12:10:58,0.09,-0.26,0.97
2025-02-17 12:10:58,0.09,-0.26,0.97
2025-02-17 12:10:58,0.09,-0.26,0.97
2025-02-17 12:10:58,0.09,-0.26,0.97
2025-02-17 12:10:58,0.09,-0.26,0.97
2025-02-17 12:10:58,0.09,-0.26,0.97
2025-02-17 12:10:58,0.09,-0.26,0.97
2025-02-17 12:10:58,0.09,-0.26,0.97
2025-02-17 12:10:58,0.09,-0.26,0.97
2025-02-17 12:10:59,0.09,-0.26,0.97
2025-02-17 12:10:59,0.09,-0.26,0.97
2025-02-17 12:10:59,0.09,-0.26,0.97
2025-02-17 12:10:59,0.09,-0.26,0.97
2025-02-17 12:10:59,0.09,-0.26,0.97
2025-02-17 12:10:59,0.09,-0.26,0.97
2025-02-17 12:10:59,0.09,-0.26,0.97
2025-02-17 12:10:59,0.09,-0.26,0.97
2025-02-17 12:10:59,0.09,-0.26,0.97
2025-02-17 12:10:59,0.09,-0.26,0.97
2025-02-17 12:11:00,0.09,-0.26,0.97
2025-02-17 12:11:00,0.09,-0.26,0.97
2025-02-17 12:11:00,0.09,-0.26,0.97
2025-02-17 12:11:00,0.09,-0.26,0.97
2025-02-17 12:11:00,0.09,-0.26,0.97
2025-02-17 12:11:00,0.09,-0.26,0.97
2025-02-17 12:11:00,0.09,-0.26,0.97
2025-02-17 12:11:00,0.09,-0.26,0.97
2025-02-17 12:11:00,0.09,-0.26,0.97
2025-02-17 12:11:01,0.09,-0.26,0.97
2025-02-17 12:11:01,0.09,-0.26,0.97
2025-02-17 12:11:01,0.09,-0.26,0.97
2025-02-17 12:11:01,0.09,-0.26,0.97
2025-02-17 12:11:01,0.09,-0.26,0.97
2025-02-17 12:11:01,0.09,-0.26,0.97
2025-02-17 12:11:01,0.09,-0.26,0.97
2025-02-17 12:11:01,0.09,-0.26,0.97
2025-02-17 12:11:01,0.09,-0.26,0.97
2025-02-17 12:11:01,0.09,-0.26,0.97
2025-02-17 12:11:02,0.09,-0.26,0.97
2025-02-17 12:11:02,0.09,-0.26,0.97
2025-02-17 12:11:02,0.09,-0.26,0.97
2025-02-17 12:11:02,0.09,-0.26,0.97
2025-02-17 12:11:02,0.09,-0.26,0.97
2025-02-17 12:11:02,0.09,-0.26,0.97
2025-02-17 12:11:02,0.09,-0.26,0.97
2025-02-17 12:11:02,0.09,-0.26,0.97
2025-02-17 12:11:02,0.09,-0.26,0.97
2025-02-17 12:11:03,0.09,-0.26,0.97
2025-02-17 12:11:03,0.09,-0.26,0.97
2025-02-17 12:11:03,0.09,-0.26,0.97
2025-02-17 12:11:03,0.09,-0.26,0.97
2025-02-17 12:11:03,0.09,-0.26,0.97
2025-02-17 12:11:03,0.09,-0.26,0.97
2025-02-17 12:11:03,0.09,-0.26,0.97
2025-02-17 12:11:03,0.09,-0.26,0.97
2025-02-17 12:11:03,0.09,-0.26,0.97
2025-02-17 12:11:03,0.09,-0.26,0.97
2025-02-17 12:11:04,0.09,-0.26,0.97
2025-02-17 12:11:04,0.09,-0.26,0.97
2025-02-17 12:11:04,0.09,-0.26,0.97
2025-02-17 12:11:04,0.09,-0.26,0.97
2025-02-17 12:11:04,0.09,-0.26,0.97
2025-02-17 12:11:04,0.09,-0.26,0.97
2025-02-17 12:11:04,0.09,-0.26,0.97
2025-02-17 12:11:04,0.09,-0.26,0.97
2025-02-17 12:11:04,0.09,-0.26,0.97
2025-02-17 12:11:04,0.09,-0.26,0.97
2025-02-17 12:11:05,0.09,-0.26,0.97
2025-02-17 12:11:05,0.09,-0.26,0.97
2025-02-17 12:11:05,0.09,-0.26,0.97
2025-02-17 12:11:05,0.09,-0.26,0.97
2025-02-17 12:11:05,0.09,-0.26,0.97
2025-02-17 12:11:05,0.09,-0.26,0.97
2025-02-17 12:11:05,0.09,-0.26,0.97
2025-02-17 12:11:05,0.09,-0.26,0.97
2025-02-17 12:11:05,0.09,-0.26,0.97
2025-02-17 12:11:06,0.09,-0.26,0.97
2025-02-17 12:11:06,0.09,-0.26,0.97
2025-02-17 12:11:06,0.09,-0.26,0.97
2025-02-17 12:11:06,0.09,-0.26,0.97
2025-02-17 12:11:06,0.09,-0.26,0.97
2025-02-17 12:11:06,0.09,-0.26,0.97
2025-02-17 12:11:06,0.09,-0.26,0.97
2025-02-17 12:11:06,0.09,-0.26,0.97
2025-02-17 12:11:06,0.09,-0.26,0.97
2025-02-17 12:11:06,0.09,-0.26,0.97
2025-02-17 12:11:07,0.09,-0.26,0.97
2025-02-17 12:11:07,0.09,-0.26,0.97
2025-02-17 12:11:07,0.09,-0.26,0.97
2025-02-17 12:11:07,0.09,-0.26,0.97
2025-02-17 12:11:07,0.09,-0.26,0.97
2025-02-17 12:11:07,0.09,-0.26,0.97
2025-02-17 12:11:07,0.09,-0.26,0.97
2025-02-17 12:11:07,0.09,-0.26,0.97
2025-02-17 12:11:07,0.09,-0.26,0.97
2025-02-17 12:11:07,0.09,-0.26,0.97
2025-02-17 12:11:08,0.09,-0.26,0.97
2025-02-17 12:11:08,0.09,-0.26,0.97
2025-02-17 12:11:08,0.09,-0.26,0.97
2025-02-17 12:11:08,0.09,-0.26,0.97
2025-02-17 12:11:08,0.09,-0.26,0.97
2025-02-17 12:11:08,0.09,-0.26,0.97
2025-02-17 12:11:08,0.09,-0.26,0.97
2025-02-17 12:11:08,0.09,-0.26,0.97
2025-02-17 12:11:08,0.09,-0.26,0.97
2025-02-17 12:11:09,0.09,-0.26,0.97
2025-02-17 12:11:09,0.09,-0.26,0.97
2025-02-17 12:11:09,0.09,-0.26,0.97
2025-02-17 12:11:09,0.09,-0.26,0.97
2025-02-17 12:11:09,0.09,-0.26,0.97
2025-02-17 12:11:09,0.09,-0.26,0.97
2025-02-17 12:11:09,0.09,-0.26,0.97
2025-02-17 12:11:09,0.09,-0.26,0.96
2025-02-17 12:11:09,0.09,-0.26,0.96
2025-02-17 12:11:09,0.09,-0.26,0.97
2025-02-17 12:11:10,0.09,-0.26,0.97
2025-02-17 12:11:10,0.09,-0.26,0.98
2025-02-17 12:11:10,0.09,-0.26,0.96
2025-02-17 12:11:10,0.09,-0.26,0.97
2025-02-17 12:11:10,0.09,-0.26,0.97
2025-02-17 12:11:10,0.09,-0.26,0.97
2025-02-17 12:11:10,0.09,-0.26,0.96
2025-02-17 12:11:10,0.09,-0.26,0.96
2025-02-17 12:11:10,0.09,-0.26,0.97
2025-02-17 12:11:11,0.09,-0.26,0.97
2025-02-17 12:11:11,0.09,-0.26,0.97
2025-02-17 12:11:11,0.09,-0.26,0.97
2025-02-17 12:11:11,0.09,-0.26,0.97
2025-02-17 12:11:11,0.09,-0.26,0.96
2025-02-17 12:11:11,0.09,-0.26,0.97
2025-02-17 12:11:11,0.09,-0.26,0.96
2025-02-17 12:11:11,0.09,-0.26,0.97
2025-02-17 12:11:11,0.09,-0.26,0.97
2025-02-17 12:11:12,0.09,-0.26,0.97
2025-02-17 12:11:12,0.09,-0.26,0.96
2025-02-17 12:11:12,0.09,-0.26,0.97
2025-02-17 12:11:12,0.09,-0.26,0.97
2025-02-17 12:11:12,0.09,-0.26,0.97
2025-02-17 12:11:12,0.09,-0.26,0.97
2025-02-17 12:11:12,0.09,-0.26,0.96
2025-02-17 12:11:12,0.09,-0.26,0.97
2025-02-17 12:11:12,0.09,-0.26,0.97
2025-02-17 12:11:12,0.09,-0.26,0.96
2025-02-17 12:11:13,0.09,-0.26,0.97
2025-02-17 12:11:13,0.09,-0.26,0.96
2025-02-17 12:11:13,0.09,-0.26,0.97
2025-02-17 12:11:13,0.09,-0.26,0.97
2025-02-17 12:11:13,0.09,-0.26,0.97
2025-02-17 12:11:13,0.09,-0.26,0.97
2025-02-17 12:11:13,0.09,-0.26,0.97
2025-02-17 12:11:13,0.09,-0.26,0.96
2025-02-17 12:11:13,0.09,-0.26,0.96
2025-02-17 12:11:13,0.09,-0.26,0.96
2025-02-17 12:11:14,0.09,-0.26,0.96
2025-02-17 12:11:14,0.09,-0.26,0.97
2025-02-17 12:11:14,0.09,-0.26,0.96
2025-02-17 12:11:14,0.09,-0.26,0.96
2025-02-17 12:11:14,0.09,-0.26,0.96
2025-02-17 12:11:14,0.09,-0.26,0.97
2025-02-17 12:11:14,0.09,-0.26,0.96
2025-02-17 12:11:14,0.09,-0.26,0.97
2025-02-17 12:11:14,0.09,-0.26,0.97
2025-02-17 12:11:15,0.09,-0.26,0.97
2025-02-17 12:11:15,0.09,-0.26,0.97
2025-02-17 12:11:15,0.09,-0.26,0.97
2025-02-17 12:11:15,0.09,-0.26,0.97
2025-02-17 12:11:15,0.09,-0.26,0.97
2025-02-17 12:11:15,0.09,-0.26,0.97
2025-02-17 12:11:15,0.09,-0.26,0.97
2025-02-17 12:11:15,0.09,-0.26,0.97
2025-02-17 12:11:15,0.09,-0.26,0.97
2025-02-17 12:11:15,0.09,-0.26,0.97
2025-02-17 12:11:16,0.09,-0.26,0.97
2025-02-17 12:11:16,0.09,-0.26,0.97
2025-02-17 12:11:16,0.09,-0.26,0.97
2025-02-17 12:11:16,0.09,-0.26,0.97
2025-02-17 12:11:16,0.09,-0.26,0.97
2025-02-17 12:11:16,0.09,-0.26,0.97
2025-02-17 12:11:16,0.09,-0.26,0.97
2025-02-17 12:11:16,0.09,-0.26,0.97
2025-02-17 12:11:16,0.09,-0.26,0.97
2025-02-17 12:11:16,0.09,-0.26,0.97
2025-02-17 12:11:17,0.09,-0.26,0.97
2025-02-17 12:11:17,0.09,-0.26,0.97
2025-02-17 12:11:17,0.09,-0.26,0.97
2025-02-17 12:11:17,0.09,-0.26,0.97
2025-02-17 12:11:17,0.09,-0.26,0.97
2025-02-17 12:11:17,0.09,-0.26,0.97
2025-02-17 12:11:17,0.09,-0.26,0.97
2025-02-17 12:11:17,0.09,-0.26,0.97
2025-02-17 12:11:17,0.09,-0.26,0.97
2025-02-17 12:11:18,0.09,-0.26,0.97
2025-02-17 12:11:18,0.09,-0.26,0.97
2025-02-17 12:11:18,0.09,-0.26,0.97
2025-02-17 12:11:18,0.09,-0.26,0.97
2025-02-17 12:11:18,0.09,-0.26,0.97
2025-02-17 12:11:18,0.09,-0.26,0.97
2025-02-17 12:11:18,0.09,-0.26,0.97
2025-02-17 12:11:18,0.09,-0.26,0.97
2025-02-17 12:11:18,0.09,-0.26,0.97
2025-02-17 12:11:18,0.09,-0.26,0.97
2025-02-17 12:11:19,0.09,-0.26,0.97
2025-02-17 12:11:19,0.09,-0.26,0.97
2025-02-17 12:11:19,0.09,-0.26,0.97
2025-02-17 12:11:19,0.09,-0.26,0.97
2025-02-17 12:11:19,0.09,-0.26,0.97
2025-02-17 12:11:19,0.09,-0.26,0.97
2025-02-17 12:11:19,0.09,-0.26,0.97
2025-02-17 12:11:19,0.09,-0.26,0.96
2025-02-17 12:11:19,0.09,-0.26,0.97
2025-02-17 12:11:19,0.09,-0.26,0.97
2025-02-17 12:11:20,0.09,-0.26,0.97
2025-02-17 12:11:20,0.09,-0.26,0.97
2025-02-17 12:11:20,0.09,-0.26,0.97
2025-02-17 12:11:20,0.09,-0.26,0.97
2025-02-17 12:11:20,0.09,-0.26,0.97
2025-02-17 12:11:20,0.09,-0.26,0.97
2025-02-17 12:11:20,0.09,-0.26,0.97
2025-02-17 12:11:20,0.09,-0.26,0.97
2025-02-17 12:11:20,0.09,-0.26,0.97
2025-02-17 12:11:20,0.09,-0.26,0.97
2025-02-17 12:11:21,0.09,-0.26,0.97
2025-02-17 12:11:21,0.09,-0.26,0.97
2025-02-17 12:11:21,0.09,-0.26,0.97
2025-02-17 12:11:21,0.09,-0.26,0.97
2025-02-17 12:11:21,0.09,-0.26,0.97
2025-02-17 12:11:21,0.09,-0.26,0.97
2025-02-17 12:11:21,0.09,-0.26,0.97
2025-02-17 12:11:21,0.09,-0.26,0.97
2025-02-17 12:11:21,0.09,-0.26,0.97
2025-02-17 12:11:22,0.09,-0.26,0.97
2025-02-17 12:11:22,0.09,-0.26,0.97
2025-02-17 12:11:22,0.09,-0.26,0.97
2025-02-17 12:11:22,0.09,-0.26,0.97
2025-02-17 12:11:22,0.09,-0.26,0.97
2025-02-17 12:11:22,0.09,-0.26,0.97
2025-02-17 12:11:22,0.09,-0.26,0.97
2025-02-17 12:11:22,0.09,-0.26,0.97
2025-02-17 12:11:22,0.09,-0.26,0.97
2025-02-17 12:11:22,0.09,-0.26,0.97
2025-02-17 12:11:23,0.09,-0.26,0.97
2025-02-17 12:11:23,0.09,-0.26,0.97
2025-02-17 12:11:23,0.09,-0.26,0.97
2025-02-17 12:11:23,0.09,-0.26,0.97
2025-02-17 12:11:23,0.09,-0.26,0.97
2025-02-17 12:11:23,0.09,-0.26,0.97
2025-02-17 12:11:23,0.09,-0.26,0.97
2025-02-17 12:11:23,0.09,-0.26,0.97
2025-02-17 12:11:23,0.09,-0.26,0.97
2025-02-17 12:11:23,0.09,-0.26,0.97
2025-02-17 12:11:24,0.09,-0.26,0.97
2025-02-17 12:11:24,0.09,-0.26,0.97
2025-02-17 12:11:24,0.09,-0.26,0.97
2025-02-17 12:11:24,0.09,-0.26,0.97
2025-02-17 12:11:24,0.09,-0.26,0.97
2025-02-17 12:11:24,0.09,-0.26,0.97
2025-02-17 12:11:24,0.09,-0.26,0.97
2025-02-17 12:11:24,0.09,-0.26,0.97
2025-02-17 12:11:24,0.09,-0.26,0.97
2025-02-17 12:11:25,0.09,-0.26,0.97
2025-02-17 12:11:25,0.09,-0.26,0.97
2025-02-17 12:11:25,0.09,-0.26,0.97
2025-02-17 12:11:25,0.09,-0.26,0.97
2025-02-17 12:11:25,0.09,-0.26,0.97
2025-02-17 12:11:25,0.09,-0.26,0.97
2025-02-17 12:11:25,0.09,-0.26,0.97
2025-02-17 12:11:25,0.09,-0.26,0.97
2025-02-17 12:11:25,0.09,-0.26,0.97
2025-02-17 12:11:25,0.09,-0.26,0.97
2025-02-17 12:11:26,0.09,-0.26,0.97
2025-02-17 12:11:26,0.09,-0.26,0.97
2025-02-17 12:11:26,0.09,-0.26,0.97
2025-02-17 12:11:26,0.09,-0.26,0.97
2025-02-17 12:11:26,0.09,-0.26,0.97
2025-02-17 12:11:26,0.09,-0.26,0.97
2025-02-17 12:11:26,0.09,-0.26,0.97
2025-02-17 12:11:26,0.09,-0.26,0.97
2025-02-17 12:11:26,0.09,-0.26,0.97
2025-02-17 12:11:26,0.09,-0.26,0.97
2025-02-17 12:11:27,0.09,-0.26,0.97
2025-02-17 12:11:27,0.09,-0.26,0.97
2025-02-17 12:11:27,0.09,-0.26,0.97
2025-02-17 12:11:27,0.09,-0.26,0.97
2025-02-17 12:11:27,0.09,-0.26,0.97
2025-02-17 12:11:27,0.09,-0.26,0.97
2025-02-17 12:11:27,0.09,-0.26,0.97
2025-02-17 12:11:27,0.09,-0.26,0.97
2025-02-17 12:11:27,0.09,-0.26,0.97
2025-02-17 12:11:28,0.09,-0.26,0.97
2025-02-17 12:11:28,0.09,-0.26,0.97
2025-02-17 12:11:28,0.09,-0.26,0.97
2025-02-17 12:11:28,0.09,-0.26,0.97
2025-02-17 12:11:28,0.09,-0.26,0.97
2025-02-17 12:11:28,0.09,-0.26,0.97
2025-02-17 12:11:28,0.09,-0.26,0.97
2025-02-17 12:11:28,0.09,-0.26,0.97
2025-02-17 12:11:28,0.09,-0.26,0.97
2025-02-17 12:11:28,0.09,-0.26,0.97
2025-02-17 12:11:29,0.09,-0.26,0.97
2025-02-17 12:11:29,0.09,-0.26,0.97
2025-02-17 12:11:29,0.09,-0.26,0.97
2025-02-17 12:11:29,0.09,-0.26,0.97
2025-02-17 12:11:29,0.09,-0.26,0.98
2025-02-17 12:11:29,0.09,-0.26,0.97
2025-02-17 12:11:29,0.09,-0.26,0.97
2025-02-17 12:11:29,0.09,-0.26,0.97
2025-02-17 12:11:29,0.09,-0.26,0.97
2025-02-17 12:11:29,0.09,-0.26,0.97
2025-02-17 12:11:30,0.09,-0.26,0.97
2025-02-17 12:11:30,0.09,-0.26,0.97
2025-02-17 12:11:30,0.09,-0.26,0.97
2025-02-17 12:11:30,0.09,-0.26,0.97
2025-02-17 12:11:30,0.09,-0.26,0.97
2025-02-17 12:11:30,0.09,-0.26,0.97
2025-02-17 12:11:30,0.09,-0.26,0.97
2025-02-17 12:11:30,0.09,-0.26,0.97
2025-02-17 12:11:30,0.09,-0.26,0.97
2025-02-17 12:11:31,0.09,-0.26,0.97
2025-02-17 12:11:31,0.09,-0.26,0.97
2025-02-17 12:11:31,0.09,-0.26,0.97
2025-02-17 12:11:31,0.09,-0.26,0.97
2025-02-17 12:11:31,0.09,-0.26,0.97
2025-02-17 12:11:31,0.09,-0.26,0.97
2025-02-17 12:11:31,0.09,-0.26,0.97
2025-02-17 12:11:31,0.09,-0.26,0.97
2025-02-17 12:11:31,0.09,-0.26,0.97
2025-02-17 12:11:31,0.09,-0.26,0.97
2025-02-17 12:11:32,0.09,-0.26,0.97
2025-02-17 12:11:32,0.09,-0.26,0.97
2025-02-17 12:11:32,0.09,-0.26,0.97
2025-02-17 12:11:32,0.09,-0.26,0.97
2025-02-17 12:11:32,0.09,-0.26,0.97
2025-02-17 12:11:32,0.09,-0.26,0.97
2025-02-17 12:11:32,0.09,-0.26,0.97
2025-02-17 12:11:32,0.09,-0.26,0.97
2025-02-17 12:11:32,0.09,-0.26,0.97
2025-02-17 12:11:33,0.09,-0.26,0.97
2025-02-17 12:11:33,0.09,-0.26,0.97
2025-02-17 12:11:33,0.09,-0.26,0.97
2025-02-17 12:11:33,0.09,-0.26,0.97
2025-02-17 12:11:33,0.09,-0.26,0.97
2025-02-17 12:11:33,0.09,-0.26,0.97
2025-02-17 12:11:33,0.09,-0.26,0.97
2025-02-17 12:11:33,0.09,-0.26,0.97
2025-02-17 12:11:33,0.09,-0.26,0.97
2025-02-17 12:11:33,0.09,-0.26,0.97
2025-02-17 12:11:34,0.09,-0.26,0.97
2025-02-17 12:11:34,0.09,-0.26,0.97
2025-02-17 12:11:34,0.09,-0.26,0.97
2025-02-17 12:11:34,0.09,-0.26,0.97
2025-02-17 12:11:34,0.09,-0.26,0.97
2025-02-17 12:11:34,0.09,-0.26,0.97
2025-02-17 12:11:34,0.09,-0.26,0.97
2025-02-17 12:11:34,0.09,-0.26,0.97
2025-02-17 12:11:34,0.09,-0.26,0.97
2025-02-17 12:11:34,0.09,-0.26,0.97
2025-02-17 12:11:35,0.09,-0.26,0.97
2025-02-17 12:11:35,0.09,-0.26,0.97
2025-02-17 12:11:35,0.09,-0.26,0.97
2025-02-17 12:11:35,0.09,-0.26,0.97
2025-02-17 12:11:35,0.09,-0.26,0.97
2025-02-17 12:11:35,0.09,-0.26,0.97
2025-02-17 12:11:35,0.09,-0.26,0.97
2025-02-17 12:11:35,0.09,-0.26,0.97
2025-02-17 12:11:35,0.09,-0.26,0.97
2025-02-17 12:11:36,0.09,-0.26,0.97
2025-02-17 12:11:36,0.09,-0.26,0.97
2025-02-17 12:11:36,0.09,-0.26,0.97
2025-02-17 12:11:36,0.09,-0.26,0.97
2025-02-17 12:11:36,0.09,-0.26,0.97
2025-02-17 12:11:36,0.09,-0.26,0.97
2025-02-17 12:11:36,0.09,-0.26,0.97
2025-02-17 12:11:36,0.09,-0.26,0.97
2025-02-17 12:11:36,0.09,-0.26,0.97
2025-02-17 12:11:36,0.09,-0.26,0.97
2025-02-17 12:11:37,0.09,-0.26,0.97
2025-02-17 12:11:37,0.09,-0.26,0.97
2025-02-17 12:11:37,0.09,-0.26,0.97
2025-02-17 12:11:37,0.09,-0.26,0.97
2025-02-17 12:11:37,0.09,-0.26,0.97
2025-02-17 12:11:37,0.09,-0.26,0.97
2025-02-17 12:11:37,0.09,-0.26,0.97
2025-02-17 12:11:37,0.09,-0.26,0.97
2025-02-17 12:11:37,0.09,-0.26,0.97
2025-02-17 12:11:38,0.09,-0.26,0.97
2025-02-17 12:11:38,0.09,-0.26,0.97
2025-02-17 12:11:38,0.09,-0.26,0.97
2025-02-17 12:11:38,0.09,-0.26,0.97
2025-02-17 12:11:38,0.09,-0.26,0.97
2025-02-17 12:11:38,0.09,-0.26,0.97
2025-02-17 12:11:38,0.09,-0.26,0.97
2025-02-17 12:11:38,0.09,-0.26,0.97
2025-02-17 12:11:38,0.09,-0.26,0.97
2025-02-17 12:11:38,0.09,-0.26,0.97
2025-02-17 12:11:39,0.09,-0.26,0.97
2025-02-17 12:11:39,0.09,-0.26,0.97
2025-02-17 12:11:39,0.09,-0.26,0.97
2025-02-17 12:11:39,0.09,-0.26,0.97
2025-02-17 12:11:39,0.09,-0.26,0.97
2025-02-17 12:11:39,0.09,-0.26,0.97
2025-02-17 12:11:39,0.09,-0.26,0.97
2025-02-17 12:11:39,0.09,-0.26,0.97
2025-02-17 12:11:39,0.09,-0.26,0.97
2025-02-17 12:11:39,0.09,-0.26,0.97
2025-02-17 12:11:40,0.09,-0.26,0.97
2025-02-17 12:11:40,0.09,-0.26,0.97
2025-02-17 12:11:40,0.09,-0.26,0.97
2025-02-17 12:11:40,0.09,-0.26,0.97
2025-02-17 12:11:40,0.09,-0.26,0.97
2025-02-17 12:11:40,0.09,-0.26,0.97
2025-02-17 12:11:40,0.09,-0.26,0.97
2025-02-17 12:11:40,0.09,-0.26,0.97
2025-02-17 12:11:41,0.09,-0.26,0.97
2025-02-17 12:11:41,0.09,-0.26,0.97
2025-02-17 12:11:41,0.09,-0.26,0.97
2025-02-17 12:11:41,0.09,-0.26,0.97
2025-02-17 12:11:41,0.09,-0.26,0.97
2025-02-17 12:11:41,0.09,-0.26,0.97
2025-02-17 12:11:41,0.09,-0.26,0.97
2025-02-17 12:11:41,0.09,-0.26,0.97
2025-02-17 12:11:41,0.09,-0.26,0.97
2025-02-17 12:11:41,0.09,-0.26,0.97
2025-02-17 12:11:42,0.09,-0.26,0.97
2025-02-17 12:11:42,0.09,-0.26,0.97
2025-02-17 12:11:42,0.09,-0.26,0.97
2025-02-17 12:11:42,0.09,-0.26,0.97
2025-02-17 12:11:42,0.09,-0.26,0.97
2025-02-17 12:11:42,0.09,-0.26,0.97
2025-02-17 12:11:42,0.09,-0.26,0.97
2025-02-17 12:11:42,0.09,-0.26,0.97
2025-02-17 12:11:42,0.09,-0.26,0.97
2025-02-17 12:11:42,0.09,-0.26,0.97
2025-02-17 12:11:43,0.09,-0.26,0.97
2025-02-17 12:11:43,0.09,-0.26,0.97
2025-02-17 12:11:43,0.09,-0.26,0.97
2025-02-17 12:11:43,0.09,-0.26,0.97
2025-02-17 12:11:43,0.09,-0.26,0.97
2025-02-17 12:11:43,0.09,-0.26,0.97
2025-02-17 12:11:43,0.09,-0.26,0.97
2025-02-17 12:11:43,0.09,-0.26,0.97
2025-02-17 12:11:43,0.09,-0.26,0.97
2025-02-17 12:11:43,0.09,-0.26,0.97
2025-02-17 12:11:44,0.09,-0.26,0.97
2025-02-17 12:11:44,0.09,-0.26,0.97
2025-02-17 12:11:44,0.09,-0.26,0.97
2025-02-17 12:11:44,0.09,-0.26,0.97
2025-02-17 12:11:44,0.09,-0.26,0.97
2025-02-17 12:11:44,0.09,-0.26,0.97
2025-02-17 12:11:44,0.09,-0.26,0.97
2025-02-17 12:11:44,0.09,-0.26,0.97
2025-02-17 12:11:44,0.09,-0.26,0.97
2025-02-17 12:11:45,0.09,-0.26,0.97
2025-02-17 12:11:45,0.09,-0.26,0.97
2025-02-17 12:11:45,0.09,-0.26,0.97
2025-02-17 12:11:45,0.09,-0.26,0.97
2025-02-17 12:11:45,0.09,-0.26,0.97
2025-02-17 12:11:45,0.09,-0.26,0.97
2025-02-17 12:11:45,0.09,-0.26,0.97
2025-02-17 12:11:45,0.09,-0.26,0.97
2025-02-17 12:11:45,0.09,-0.26,0.97
2025-02-17 12:11:45,0.09,-0.26,0.97
2025-02-17 12:11:46,0.09,-0.26,0.97
2025-02-17 12:11:46,0.09,-0.26,0.97
2025-02-17 12:11:46,0.09,-0.26,0.97
2025-02-17 12:11:46,0.09,-0.26,0.97
2025-02-17 12:11:46,0.09,-0.26,0.97
2025-02-17 12:11:46,0.09,-0.26,0.97
2025-02-17 12:11:46,0.09,-0.26,0.97
2025-02-17 12:11:46,0.09,-0.26,0.97
2025-02-17 12:11:46,0.09,-0.26,0.97
2025-02-17 12:11:46,0.09,-0.26,0.97
2025-02-17 12:11:47,0.09,-0.26,0.97
2025-02-17 12:11:47,0.09,-0.26,0.97
2025-02-17 12:11:47,0.09,-0.26,0.97
2025-02-17 12:11:47,0.09,-0.26,0.97
2025-02-17 12:11:47,0.09,-0.26,0.97
2025-02-17 12:11:47,0.09,-0.26,0.97
2025-02-17 12:11:47,0.09,-0.26,0.97
2025-02-17 12:11:47,0.09,-0.26,0.97
2025-02-17 12:11:47,0.09,-0.26,0.97
2025-02-17 12:11:48,0.09,-0.26,0.97
2025-02-17 12:11:48,0.09,-0.26,0.97
2025-02-17 12:11:48,0.09,-0.26,0.97
2025-02-17 12:11:48,0.09,-0.26,0.97
2025-02-17 12:11:48,0.09,-0.26,0.97
2025-02-17 12:11:48,0.09,-0.26,0.97
2025-02-17 12:11:48,0.09,-0.26,0.97
2025-02-17 12:11:48,0.09,-0.26,0.97
2025-02-17 12:11:48,0.09,-0.26,0.97
2025-02-17 12:11:48,0.09,-0.26,0.97
2025-02-17 12:11:49,0.09,-0.26,0.97
2025-02-17 12:11:49,0.09,-0.26,0.97
2025-02-17 12:11:49,0.09,-0.26,0.97
2025-02-17 12:11:49,0.09,-0.26,0.97
2025-02-17 12:11:49,0.09,-0.26,0.97
2025-02-17 12:11:49,0.09,-0.26,0.97
2025-02-17 12:11:49,0.09,-0.26,0.97
2025-02-17 12:11:49,0.09,-0.26,0.97
2025-02-17 12:11:49,0.09,-0.26,0.97
2025-02-17 12:11:49,0.09,-0.26,0.97
2025-02-17 12:11:50,0.09,-0.26,0.97
2025-02-17 12:11:50,0.09,-0.26,0.97
2025-02-17 12:11:50,0.09,-0.26,0.97
2025-02-17 12:11:50,0.09,-0.26,0.97
2025-02-17 12:11:50,0.09,-0.26,0.97
2025-02-17 12:11:50,0.09,-0.26,0.97
2025-02-17 12:11:50,0.09,-0.26,0.97
2025-02-17 12:11:50,0.09,-0.26,0.97
2025-02-17 12:11:50,0.09,-0.26,0.97
2025-02-17 12:11:51,0.09,-0.26,0.97
2025-02-17 12:11:51,0.09,-0.26,0.97
2025-02-17 12:11:51,0.09,-0.26,0.97
2025-02-17 12:11:51,0.09,-0.26,0.97
2025-02-17 12:11:51,0.09,-0.26,0.97
2025-02-17 12:11:51,0.09,-0.26,0.97
2025-02-17 12:11:51,0.09,-0.26,0.97
2025-02-17 12:11:51,0.09,-0.26,0.97
2025-02-17 12:11:51,0.09,-0.26,0.97
2025-02-17 12:11:51,0.09,-0.26,0.97
2025-02-17 12:11:52,0.09,-0.26,0.97
2025-02-17 12:11:52,0.09,-0.26,0.97
2025-02-17 12:11:52,0.09,-0.26,0.97
2025-02-17 12:11:52,0.09,-0.26,0.97
2025-02-17 12:11:52,0.09,-0.26,0.97
2025-02-17 12:11:52,0.09,-0.26,0.97
2025-02-17 12:11:52,0.09,-0.26,0.97
2025-02-17 12:11:52,0.09,-0.26,0.97
2025-02-17 12:11:52,0.09,-0.26,0.97
2025-02-17 12:11:52,0.09,-0.26,0.97
2025-02-17 12:11:53,0.09,-0.26,0.97
2025-02-17 12:11:53,0.09,-0.26,0.97
2025-02-17 12:11:53,0.09,-0.26,0.97
2025-02-17 12:11:53,0.09,-0.26,0.97
2025-02-17 12:11:53,0.09,-0.26,0.97
2025-02-17 12:11:53,0.09,-0.26,0.97
2025-02-17 12:11:53,0.09,-0.26,0.97
2025-02-17 12:11:53,0.09,-0.26,0.97
2025-02-17 12:11:53,0.09,-0.26,0.97
2025-02-17 12:11:53,0.09,-0.26,0.97
2025-02-17 12:11:54,0.09,-0.26,0.97
2025-02-17 12:11:54,0.09,-0.26,0.97
2025-02-17 12:11:54,0.09,-0.26,0.97
2025-02-17 12:11:54,0.09,-0.26,0.97
2025-02-17 12:11:54,0.09,-0.26,0.97
2025-02-17 12:11:54,0.09,-0.26,0.97
2025-02-17 12:11:54,0.09,-0.26,0.97
2025-02-17 12:11:54,0.09,-0.26,0.97
2025-02-17 12:11:54,0.09,-0.26,0.97
2025-02-17 12:11:55,0.09,-0.26,0.97
2025-02-17 12:11:55,0.09,-0.26,0.97
2025-02-17 12:11:55,0.09,-0.26,0.97
2025-02-17 12:11:55,0.09,-0.26,0.97
2025-02-17 12:11:55,0.09,-0.26,0.97
2025-02-17 12:11:55,0.09,-0.26,0.97
2025-02-17 12:11:55,0.09,-0.26,0.97
2025-02-17 12:11:55,0.09,-0.26,0.97
2025-02-17 12:11:55,0.09,-0.26,0.97
2025-02-17 12:11:55,0.09,-0.26,0.97
2025-02-17 12:11:56,0.09,-0.26,0.97
2025-02-17 12:11:56,0.09,-0.26,0.97
2025-02-17 12:11:56,0.09,-0.26,0.97
2025-02-17 12:11:56,0.09,-0.26,0.97
2025-02-17 12:11:56,0.09,-0.26,0.97
2025-02-17 12:11:56,0.09,-0.26,0.97
2025-02-17 12:11:56,0.09,-0.26,0.97
2025-02-17 12:11:56,0.09,-0.26,0.97
2025-02-17 12:11:56,0.09,-0.26,0.97
2025-02-17 12:11:56,0.09,-0.26,0.97
2025-02-17 12:11:57,0.09,-0.26,0.97
2025-02-17 12:11:57,0.09,-0.26,0.97
2025-02-17 12:11:57,0.09,-0.26,0.97
2025-02-17 12:11:57,0.09,-0.26,0.97
2025-02-17 12:11:57,0.09,-0.26,0.97
2025-02-17 12:11:57,0.09,-0.26,0.97
2025-02-17 12:11:57,0.09,-0.26,0.97
2025-02-17 12:11:57,0.09,-0.26,0.97
2025-02-17 12:11:57,0.09,-0.26,0.97
2025-02-17 12:11:58,0.09,-0.26,0.97
2025-02-17 12:11:58,0.09,-0.26,0.97
2025-02-17 12:11:58,0.09,-0.26,0.97
2025-02-17 12:11:58,0.09,-0.26,0.97
2025-02-17 12:11:58,0.09,-0.26,0.97
2025-02-17 12:11:58,0.09,-0.26,0.97
2025-02-17 12:11:58,0.09,-0.26,0.97
2025-02-17 12:11:58,0.09,-0.26,0.97
2025-02-17 12:11:58,0.09,-0.26,0.97
2025-02-17 12:11:58,0.09,-0.26,0.97
2025-02-17 12:11:59,0.09,-0.26,0.97
2025-02-17 12:11:59,0.09,-0.26,0.97
2025-02-17 12:11:59,0.09,-0.26,0.97
2025-02-17 12:11:59,0.09,-0.26,0.97
2025-02-17 12:11:59,0.09,-0.26,0.97
2025-02-17 12:11:59,0.09,-0.26,0.97
2025-02-17 12:11:59,0.09,-0.26,0.97
2025-02-17 12:11:59,0.09,-0.26,0.97
2025-02-17 12:11:59,0.09,-0.26,0.97
2025-02-17 12:11:59,0.09,-0.26,0.97
2025-02-17 12:12:00,0.09,-0.26,0.97
2025-02-17 12:12:00,0.09,-0.26,0.97
2025-02-17 12:12:00,0.09,-0.26,0.97
2025-02-17 12:12:00,0.09,-0.26,0.97
2025-02-17 12:12:00,0.09,-0.26,0.97
2025-02-17 12:12:00,0.09,-0.26,0.97
2025-02-17 12:12:00,0.09,-0.26,0.97
2025-02-17 12:12:00,0.09,-0.26,0.97
2025-02-17 12:12:00,0.09,-0.26,0.97
2025-02-17 12:12:01,0.09,-0.26,0.97
2025-02-17 12:12:01,0.09,-0.26,0.97
2025-02-17 12:12:01,0.09,-0.26,0.97
2025-02-17 12:12:01,0.09,-0.26,0.97
2025-02-17 12:12:01,0.09,-0.26,0.97
2025-02-17 12:12:01,0.09,-0.26,0.97
2025-02-17 12:12:01,0.09,-0.26,0.97
2025-02-17 12:12:01,0.09,-0.26,0.97
2025-02-17 12:12:01,0.09,-0.26,0.97
2025-02-17 12:12:01,0.09,-0.26,0.97
2025-02-17 12:12:02,0.09,-0.26,0.97
2025-02-17 12:12:02,0.09,-0.26,0.98
2025-02-17 12:12:02,0.09,-0.26,0.97
2025-02-17 12:12:02,0.09,-0.26,0.97
2025-02-17 12:12:02,0.09,-0.26,0.97
2025-02-17 12:12:02,0.09,-0.26,0.97
2025-02-17 12:12:02,0.09,-0.26,0.97
2025-02-17 12:12:02,0.09,-0.26,0.97
2025-02-17 12:12:02,0.09,-0.26,0.97
2025-02-17 12:12:03,0.09,-0.26,0.97
2025-02-17 12:12:03,0.09,-0.26,0.97
2025-02-17 12:12:03,0.09,-0.26,0.97
2025-02-17 12:12:03,0.09,-0.26,0.97
2025-02-17 12:12:03,0.09,-0.26,0.97
2025-02-17 12:12:03,0.09,-0.26,0.97
2025-02-17 12:12:03,0.09,-0.26,0.97
2025-02-17 12:12:03,0.09,-0.26,0.97
2025-02-17 12:12:03,0.09,-0.26,0.97
2025-02-17 12:12:03,0.09,-0.26,0.97
2025-02-17 12:12:04,0.09,-0.26,0.97
2025-02-17 12:12:04,0.09,-0.26,0.97
2025-02-17 12:12:04,0.09,-0.26,0.97
2025-02-17 12:12:04,0.09,-0.26,0.97
2025-02-17 12:12:04,0.09,-0.26,0.97
2025-02-17 12:12:04,0.09,-0.26,0.97
2025-02-17 12:12:04,0.09,-0.26,0.97
2025-02-17 12:12:04,0.09,-0.26,0.97
2025-02-17 12:12:04,0.09,-0.26,0.97
2025-02-17 12:12:04,0.09,-0.26,0.97
2025-02-17 12:12:05,0.09,-0.26,0.97
2025-02-17 12:12:05,0.09,-0.26,0.97
2025-02-17 12:12:05,0.09,-0.26,0.97
2025-02-17 12:12:05,0.09,-0.26,0.97
2025-02-17 12:12:05,0.09,-0.26,0.97
2025-02-17 12:12:05,0.09,-0.26,0.97
2025-02-17 12:12:05,0.09,-0.26,0.97
2025-02-17 12:12:05,0.09,-0.26,0.97
2025-02-17 12:12:05,0.09,-0.26,0.97
2025-02-17 12:12:06,0.09,-0.26,0.97
2025-02-17 12:12:06,0.09,-0.26,0.97
2025-02-17 12:12:06,0.09,-0.26,0.97
2025-02-17 12:12:06,0.09,-0.26,0.97
2025-02-17 12:12:06,0.09,-0.26,0.97
2025-02-17 12:12:06,0.09,-0.26,0.97
2025-02-17 12:12:06,0.09,-0.26,0.97
2025-02-17 12:12:06,0.09,-0.26,0.97
2025-02-17 12:12:06,0.09,-0.26,0.97
2025-02-17 12:12:06,0.09,-0.26,0.97
2025-02-17 12:12:07,0.09,-0.26,0.97
2025-02-17 12:12:07,0.09,-0.26,0.97
2025-02-17 12:12:07,0.09,-0.26,0.97
2025-02-17 12:12:07,0.09,-0.26,0.97
2025-02-17 12:12:07,0.09,-0.26,0.97
2025-02-17 12:12:07,0.09,-0.26,0.97
2025-02-17 12:12:07,0.09,-0.26,0.97
2025-02-17 12:12:07,0.09,-0.26,0.97
2025-02-17 12:12:07,0.09,-0.26,0.97
2025-02-17 12:12:07,0.09,-0.26,0.97
2025-02-17 12:12:08,0.09,-0.26,0.97
2025-02-17 12:12:08,0.09,-0.26,0.97
2025-02-17 12:12:08,0.09,-0.26,0.97
2025-02-17 12:12:08,0.09,-0.26,0.97
2025-02-17 12:12:08,0.09,-0.26,0.97
2025-02-17 12:12:08,0.09,-0.26,0.97
2025-02-17 12:12:08,0.09,-0.26,0.97
2025-02-17 12:12:08,0.09,-0.26,0.97
2025-02-17 12:12:08,0.09,-0.26,0.97
2025-02-17 12:12:09,0.09,-0.26,0.97
2025-02-17 12:12:09,0.09,-0.26,0.97
2025-02-17 12:12:09,0.09,-0.26,0.97
2025-02-17 12:12:09,0.09,-0.26,0.97
2025-02-17 12:12:09,0.09,-0.26,0.97
2025-02-17 12:12:09,0.09,-0.26,0.97
2025-02-17 12:12:09,0.09,-0.26,0.97
2025-02-17 12:12:09,0.09,-0.26,0.97
2025-02-17 12:12:09,0.09,-0.26,0.97
2025-02-17 12:12:09,0.09,-0.26,0.98
2025-02-17 12:12:10,0.09,-0.26,0.97
2025-02-17 12:12:10,0.09,-0.26,0.97
2025-02-17 12:12:10,0.09,-0.26,0.97
2025-02-17 12:12:10,0.09,-0.26,0.97
2025-02-17 12:12:10,0.09,-0.26,0.97
2025-02-17 12:12:10,0.09,-0.26,0.97
2025-02-17 12:12:10,0.09,-0.26,0.97
2025-02-17 12:12:10,0.09,-0.26,0.97
2025-02-17 12:12:10,0.09,-0.26,0.97
2025-02-17 12:12:11,0.09,-0.26,0.97
2025-02-17 12:12:11,0.09,-0.26,0.97
2025-02-17 12:12:11,0.09,-0.26,0.97
2025-02-17 12:12:11,0.09,-0.26,0.97
2025-02-17 12:12:11,0.09,-0.26,0.97
2025-02-17 12:12:11,0.09,-0.26,0.97
2025-02-17 12:12:11,0.09,-0.26,0.97
2025-02-17 12:12:11,0.09,-0.26,0.97
2025-02-17 12:12:11,0.09,-0.26,0.97
2025-02-17 12:12:11,0.09,-0.26,0.97
2025-02-17 12:12:12,0.09,-0.26,0.97
2025-02-17 12:12:12,0.09,-0.26,0.97
2025-02-17 12:12:12,0.09,-0.26,0.97
2025-02-17 12:12:12,0.09,-0.26,0.97
2025-02-17 12:12:12,0.09,-0.26,0.97
2025-02-17 12:12:12,0.09,-0.26,0.98
2025-02-17 12:12:12,0.09,-0.26,0.97
2025-02-17 12:12:12,0.09,-0.26,0.97
2025-02-17 12:12:12,0.09,-0.26,0.97
2025-02-17 12:12:12,0.09,-0.26,0.97
2025-02-17 12:12:13,0.09,-0.26,0.97
2025-02-17 12:12:13,0.09,-0.26,0.97
2025-02-17 12:12:13,0.09,-0.26,0.97
2025-02-17 12:12:13,0.09,-0.26,0.97
2025-02-17 12:12:13,0.09,-0.26,0.97
2025-02-17 12:12:13,0.09,-0.26,0.97
2025-02-17 12:12:13,0.09,-0.26,0.97
2025-02-17 12:12:13,0.09,-0.26,0.97
2025-02-17 12:12:13,0.09,-0.26,0.97
2025-02-17 12:12:14,0.09,-0.26,0.97
2025-02-17 12:12:14,0.09,-0.26,0.97
2025-02-17 12:12:14,0.09,-0.26,0.97
2025-02-17 12:12:14,0.09,-0.26,0.97
2025-02-17 12:12:14,0.09,-0.26,0.97
2025-02-17 12:12:14,0.09,-0.26,0.97
2025-02-17 12:12:14,0.09,-0.26,0.97
2025-02-17 12:12:14,0.09,-0.26,0.97
2025-02-17 12:12:14,0.09,-0.26,0.97
2025-02-17 12:12:14,0.09,-0.26,0.97
2025-02-17 12:12:15,0.09,-0.26,0.97
2025-02-17 12:12:15,0.09,-0.26,0.97
2025-02-17 12:12:15,0.09,-0.26,0.97
2025-02-17 12:12:15,0.09,-0.26,0.97
2025-02-17 12:12:15,0.09,-0.26,0.97
2025-02-17 12:12:15,0.09,-0.26,0.97
2025-02-17 12:12:15,0.09,-0.26,0.97
2025-02-17 12:12:15,0.09,-0.26,0.97
2025-02-17 12:12:15,0.09,-0.26,0.97
2025-02-17 12:12:15,0.09,-0.26,0.97
2025-02-17 12:12:16,0.09,-0.26,0.97
2025-02-17 12:12:16,0.09,-0.26,0.97
2025-02-17 12:12:16,0.09,-0.26,0.97
2025-02-17 12:12:16,0.09,-0.26,0.97
2025-02-17 12:12:16,0.09,-0.26,0.97
2025-02-17 12:12:16,0.09,-0.26,0.97
2025-02-17 12:12:16,0.09,-0.26,0.97
2025-02-17 12:12:16,0.09,-0.26,0.97
2025-02-17 12:12:16,0.09,-0.26,0.97
2025-02-17 12:12:17,0.09,-0.26,0.97
2025-02-17 12:12:17,0.09,-0.26,0.97
2025-02-17 12:12:17,0.09,-0.26,0.97
2025-02-17 12:12:17,0.09,-0.26,0.97
2025-02-17 12:12:17,0.09,-0.26,0.97
2025-02-17 12:12:17,0.09,-0.26,0.97
2025-02-17 12:12:17,0.09,-0.26,0.97
2025-02-17 12:12:17,0.09,-0.26,0.97
2025-02-17 12:12:17,0.09,-0.26,0.97
2025-02-17 12:12:17,0.09,-0.26,0.97
2025-02-17 12:12:18,0.09,-0.26,0.97
2025-02-17 12:12:18,0.09,-0.26,0.97
2025-02-17 12:12:18,0.09,-0.26,0.97
2025-02-17 12:12:18,0.09,-0.26,0.97
2025-02-17 12:12:18,0.09,-0.26,0.97
2025-02-17 12:12:18,0.09,-0.26,0.97
2025-02-17 12:12:18,0.09,-0.26,0.97
2025-02-17 12:12:18,0.09,-0.26,0.97
2025-02-17 12:12:18,0.09,-0.26,0.97
2025-02-17 12:12:19,0.09,-0.26,0.97
2025-02-17 12:12:19,0.09,-0.26,0.97
2025-02-17 12:12:19,0.09,-0.26,0.97
2025-02-17 12:12:19,0.09,-0.26,0.97
2025-02-17 12:12:19,0.09,-0.26,0.97
2025-02-17 12:12:19,0.09,-0.26,0.97
2025-02-17 12:12:19,0.09,-0.26,0.97
2025-02-17 12:12:19,0.09,-0.26,0.97
2025-02-17 12:12:19,0.09,-0.26,0.97
2025-02-17 12:12:19,0.09,-0.26,0.97
2025-02-17 12:12:20,0.09,-0.26,0.98
2025-02-17 12:12:20,0.09,-0.26,0.97
2025-02-17 12:12:20,0.09,-0.26,0.97
2025-02-17 12:12:20,0.09,-0.26,0.97
2025-02-17 12:12:20,0.09,-0.26,0.97
2025-02-17 12:12:20,0.09,-0.26,0.97
2025-02-17 12:12:20,0.09,-0.26,0.97
2025-02-17 12:12:20,0.09,-0.26,0.97
2025-02-17 12:12:20,0.09,-0.26,0.97
2025-02-17 12:12:20,0.09,-0.26,0.97
2025-02-17 12:12:21,0.09,-0.26,0.97
2025-02-17 12:12:21,0.09,-0.26,0.97
2025-02-17 12:12:21,0.09,-0.26,0.97
2025-02-17 12:12:21,0.09,-0.26,0.97
2025-02-17 12:12:21,0.09,-0.26,0.97
2025-02-17 12:12:21,0.09,-0.26,0.98
2025-02-17 12:12:21,0.09,-0.26,0.97
2025-02-17 12:12:21,0.09,-0.26,0.97
2025-02-17 12:12:21,0.09,-0.26,0.97
2025-02-17 12:12:22,0.09,-0.26,0.97
2025-02-17 12:12:22,0.09,-0.26,0.97
2025-02-17 12:12:22,0.09,-0.26,0.97
2025-02-17 12:12:22,0.09,-0.26,0.97
2025-02-17 12:12:22,0.09,-0.26,0.97
2025-02-17 12:12:22,0.09,-0.26,0.97
2025-02-17 12:12:22,0.09,-0.26,0.97
2025-02-17 12:12:22,0.09,-0.26,0.97
2025-02-17 12:12:22,0.09,-0.26,0.97
2025-02-17 12:12:22,0.09,-0.26,0.97
2025-02-17 12:12:23,0.09,-0.26,0.97
2025-02-17 12:12:23,0.09,-0.26,0.97
2025-02-17 12:12:23,0.09,-0.26,0.97
2025-02-17 12:12:23,0.09,-0.26,0.97
2025-02-17 12:12:23,0.09,-0.26,0.97
2025-02-17 12:12:23,0.09,-0.26,0.97
2025-02-17 12:12:23,0.09,-0.26,0.97
2025-02-17 12:12:23,0.09,-0.26,0.97
2025-02-17 12:12:23,0.09,-0.26,0.97
2025-02-17 12:12:23,0.09,-0.26,0.97
2025-02-17 12:12:24,0.09,-0.26,0.97
2025-02-17 12:12:24,0.09,-0.26,0.97
2025-02-17 12:12:24,0.09,-0.26,0.97
2025-02-17 12:12:24,0.09,-0.26,0.97
2025-02-17 12:12:24,0.09,-0.26,0.97
2025-02-17 12:12:24,0.09,-0.26,0.97
2025-02-17 12:12:24,0.09,-0.26,0.97
2025-02-17 12:12:24,0.09,-0.26,0.97
2025-02-17 12:12:25,0.09,-0.26,0.97
2025-02-17 12:12:25,0.09,-0.26,0.97
2025-02-17 12:12:25,0.09,-0.26,0.97
2025-02-17 12:12:25,0.09,-0.26,0.97
2025-02-17 12:12:25,0.09,-0.26,0.97
2025-02-17 12:12:25,0.09,-0.26,0.97
2025-02-17 12:12:25,0.09,-0.26,0.97
2025-02-17 12:12:25,0.09,-0.26,0.97
2025-02-17 12:12:25,0.09,-0.26,0.97
2025-02-17 12:12:25,0.09,-0.26,0.97
2025-02-17 12:12:26,0.09,-0.26,0.97
2025-02-17 12:12:26,0.09,-0.26,0.97
2025-02-17 12:12:26,0.09,-0.26,0.97
2025-02-17 12:12:26,0.09,-0.26,0.97
2025-02-17 12:12:26,0.09,-0.26,0.97
2025-02-17 12:12:26,0.09,-0.26,0.97
2025-02-17 12:12:26,0.09,-0.26,0.97
2025-02-17 12:12:26,0.09,-0.26,0.97
2025-02-17 12:12:26,0.09,-0.26,0.97
2025-02-17 12:12:26,0.09,-0.26,0.97
2025-02-17 12:12:27,0.09,-0.26,0.97
2025-02-17 12:12:27,0.09,-0.26,0.97
2025-02-17 12:12:27,0.09,-0.26,0.97
2025-02-17 12:12:27,0.09,-0.26,0.97
2025-02-17 12:12:27,0.09,-0.26,0.97
2025-02-17 12:12:27,0.09,-0.26,0.97
2025-02-17 12:12:27,0.09,-0.26,0.97
2025-02-17 12:12:27,0.09,-0.26,0.97
2025-02-17 12:12:27,0.09,-0.26,0.97
2025-02-17 12:12:28,0.09,-0.26,0.97
2025-02-17 12:12:28,0.09,-0.26,0.97
2025-02-17 12:12:28,0.09,-0.26,0.97
2025-02-17 12:12:28,0.09,-0.26,0.97
2025-02-17 12:12:28,0.09,-0.26,0.97
2025-02-17 12:12:28,0.09,-0.26,0.97
2025-02-17 12:12:28,0.09,-0.26,0.97
2025-02-17 12:12:28,0.09,-0.26,0.97
2025-02-17 12:12:28,0.09,-0.26,0.97
2025-02-17 12:12:28,0.09,-0.26,0.97
2025-02-17 12:12:29,0.09,-0.26,0.97
2025-02-17 12:12:29,0.09,-0.26,0.97
2025-02-17 12:12:29,0.09,-0.26,0.97
2025-02-17 12:12:29,0.09,-0.26,0.97
2025-02-17 12:12:29,0.09,-0.26,0.97
2025-02-17 12:12:29,0.09,-0.26,0.97
2025-02-17 12:12:29,0.09,-0.26,0.97
2025-02-17 12:12:29,0.09,-0.26,0.97
2025-02-17 12:12:29,0.09,-0.26,0.97
2025-02-17 12:12:29,0.09,-0.26,0.97
2025-02-17 12:12:30,0.09,-0.26,0.97
2025-02-17 12:12:30,0.09,-0.26,0.97
2025-02-17 12:12:30,0.09,-0.26,0.97
2025-02-17 12:12:30,0.09,-0.26,0.97
2025-02-17 12:12:30,0.09,-0.26,0.97
2025-02-17 12:12:30,0.09,-0.26,0.97
2025-02-17 12:12:30,0.09,-0.26,0.97
2025-02-17 12:12:30,0.09,-0.26,0.97
2025-02-17 12:12:30,0.09,-0.26,0.97
2025-02-17 12:12:31,0.09,-0.26,0.97
2025-02-17 12:12:31,0.09,-0.26,0.97
2025-02-17 12:12:31,0.09,-0.26,0.97
2025-02-17 12:12:31,0.09,-0.26,0.97
2025-02-17 12:12:31,0.09,-0.26,0.97
2025-02-17 12:12:31,0.09,-0.26,0.97
2025-02-17 12:12:31,0.09,-0.26,0.97
2025-02-17 12:12:31,0.09,-0.26,0.97
2025-02-17 12:12:31,0.09,-0.26,0.97
2025-02-17 12:12:31,0.09,-0.26,0.97
2025-02-17 12:12:32,0.09,-0.26,0.97
2025-02-17 12:12:32,0.09,-0.26,0.97
2025-02-17 12:12:32,0.09,-0.26,0.97
2025-02-17 12:12:32,0.09,-0.26,0.97
2025-02-17 12:12:32,0.09,-0.26,0.97
2025-02-17 12:12:32,0.09,-0.26,0.97
2025-02-17 12:12:32,0.09,-0.26,0.97
2025-02-17 12:12:32,0.09,-0.26,0.97
2025-02-17 12:12:32,0.09,-0.26,0.97
2025-02-17 12:12:32,0.09,-0.26,0.97
2025-02-17 12:12:33,0.09,-0.26,0.97
2025-02-17 12:12:33,0.09,-0.26,0.97
2025-02-17 12:12:33,0.09,-0.26,0.97
2025-02-17 12:12:33,0.09,-0.26,0.97
2025-02-17 12:12:33,0.09,-0.26,0.97
2025-02-17 12:12:33,0.09,-0.26,0.97
2025-02-17 12:12:33,0.09,-0.26,0.97
2025-02-17 12:12:33,0.09,-0.26,0.97
2025-02-17 12:12:33,0.09,-0.26,0.97
2025-02-17 12:12:33,0.09,-0.26,0.97
2025-02-17 12:12:34,0.09,-0.26,0.97
2025-02-17 12:12:34,0.09,-0.26,0.97
2025-02-17 12:12:34,0.09,-0.26,0.97
2025-02-17 12:12:34,0.09,-0.26,0.97
2025-02-17 12:12:34,0.09,-0.26,0.97
2025-02-17 12:12:34,0.09,-0.26,0.97
2025-02-17 12:12:34,0.09,-0.26,0.97
2025-02-17 12:12:34,0.09,-0.26,0.97
2025-02-17 12:12:34,0.09,-0.26,0.97
2025-02-17 12:12:35,0.09,-0.26,0.97
2025-02-17 12:12:35,0.09,-0.26,0.97
2025-02-17 12:12:35,0.09,-0.26,0.97
2025-02-17 12:12:35,0.09,-0.26,0.97
2025-02-17 12:12:35,0.09,-0.26,0.97
2025-02-17 12:12:35,0.09,-0.26,0.97
2025-02-17 12:12:35,0.09,-0.26,0.97
2025-02-17 12:12:35,0.09,-0.26,0.97
2025-02-17 12:12:35,0.09,-0.26,0.97
2025-02-17 12:12:35,0.09,-0.26,0.97
2025-02-17 12:12:36,0.09,-0.26,0.97
2025-02-17 12:12:36,0.09,-0.26,0.97
2025-02-17 12:12:36,0.09,-0.26,0.97
2025-02-17 12:12:36,0.09,-0.26,0.97
2025-02-17 12:12:36,0.09,-0.26,0.97
2025-02-17 12:12:36,0.09,-0.26,0.97
2025-02-17 12:12:36,0.09,-0.26,0.97
2025-02-17 12:12:36,0.09,-0.26,0.97
2025-02-17 12:12:36,0.09,-0.26,0.97
2025-02-17 12:12:36,0.09,-0.26,0.97
2025-02-17 12:12:37,0.09,-0.26,0.97
2025-02-17 12:12:37,0.09,-0.26,0.97
2025-02-17 12:12:37,0.09,-0.26,0.97
2025-02-17 12:12:37,0.09,-0.26,0.97
2025-02-17 12:12:37,0.09,-0.26,0.97
2025-02-17 12:12:37,0.09,-0.26,0.97
2025-02-17 12:12:37,0.09,-0.26,0.97
2025-02-17 12:12:37,0.09,-0.26,0.97
2025-02-17 12:12:37,0.09,-0.26,0.97
2025-02-17 12:12:38,0.09,-0.26,0.97
2025-02-17 12:12:38,0.09,-0.26,0.97
2025-02-17 12:12:38,0.09,-0.26,0.97
2025-02-17 12:12:38,0.09,-0.26,0.97
2025-02-17 12:12:38,0.09,-0.26,0.97
2025-02-17 12:12:38,0.09,-0.26,0.97
2025-02-17 12:12:38,0.09,-0.26,0.97
2025-02-17 12:12:38,0.09,-0.26,0.97
2025-02-17 12:12:38,0.09,-0.26,0.97
2025-02-17 12:12:38,0.09,-0.26,0.97
2025-02-17 12:12:39,0.09,-0.26,0.97
2025-02-17 12:12:39,0.09,-0.26,0.97
2025-02-17 12:12:39,0.09,-0.26,0.97
2025-02-17 12:12:39,0.09,-0.26,0.97
2025-02-17 12:12:39,0.09,-0.26,0.98
2025-02-17 12:12:39,0.09,-0.26,0.98
2025-02-17 12:12:39,0.09,-0.26,0.98
2025-02-17 12:12:39,0.09,-0.26,0.98
2025-02-17 12:12:39,0.09,-0.26,0.97
2025-02-17 12:12:39,0.09,-0.26,0.97
2025-02-17 12:12:40,0.09,-0.26,0.97
2025-02-17 12:12:40,0.09,-0.26,0.97
2025-02-17 12:12:40,0.09,-0.26,0.97
2025-02-17 12:12:40,0.09,-0.26,0.97
2025-02-17 12:12:40,0.09,-0.26,0.97
2025-02-17 12:12:40,0.09,-0.26,0.97
2025-02-17 12:12:40,0.09,-0.26,0.97
2025-02-17 12:12:40,0.09,-0.26,0.97
2025-02-17 12:12:40,0.09,-0.26,0.97
2025-02-17 12:12:41,0.09,-0.26,0.97
2025-02-17 12:12:41,0.09,-0.26,0.97
2025-02-17 12:12:41,0.09,-0.26,0.97
2025-02-17 12:12:41,0.09,-0.26,0.97
2025-02-17 12:12:41,0.09,-0.26,0.97
2025-02-17 12:12:41,0.09,-0.26,0.97
2025-02-17 12:12:41,0.09,-0.26,0.97
2025-02-17 12:12:41,0.09,-0.26,0.97
2025-02-17 12:12:41,0.09,-0.26,0.98
2025-02-17 12:12:42,0.09,-0.26,0.97
2025-02-17 12:12:42,0.09,-0.26,0.97
2025-02-17 12:12:42,0.09,-0.26,0.97
2025-02-17 12:12:42,0.09,-0.26,0.97
2025-02-17 12:12:42,0.09,-0.26,0.97
2025-02-17 12:12:42,0.09,-0.26,0.97
2025-02-17 12:12:42,0.09,-0.26,0.97
2025-02-17 12:12:42,0.09,-0.26,0.98
2025-02-17 12:12:42,0.09,-0.26,0.97
2025-02-17 12:12:42,0.09,-0.26,0.97
2025-02-17 12:12:43,0.09,-0.26,0.97
2025-02-17 12:12:43,0.09,-0.26,0.97
2025-02-17 12:12:43,0.09,-0.26,0.97
2025-02-17 12:12:43,0.09,-0.26,0.97
2025-02-17 12:12:43,0.09,-0.26,0.97
2025-02-17 12:12:43,0.09,-0.26,0.97
2025-02-17 12:12:43,0.09,-0.26,0.97
2025-02-17 12:12:43,0.09,-0.26,0.97
2025-02-17 12:12:43,0.09,-0.26,0.97
2025-02-17 12:12:43,0.09,-0.26,0.97
2025-02-17 12:12:44,0.09,-0.26,0.97
2025-02-17 12:12:44,0.09,-0.26,0.97
2025-02-17 12:12:44,0.09,-0.26,0.97
2025-02-17 12:12:44,0.09,-0.26,0.97
2025-02-17 12:12:44,0.09,-0.26,0.97
2025-02-17 12:12:44,0.09,-0.26,0.97
2025-02-17 12:12:44,0.09,-0.26,0.97
2025-02-17 12:12:44,0.09,-0.26,0.97
2025-02-17 12:12:44,0.09,-0.26,0.97
2025-02-17 12:12:45,0.09,-0.26,0.97
2025-02-17 12:12:45,0.09,-0.26,0.97
2025-02-17 12:12:45,0.09,-0.26,0.97
2025-02-17 12:12:45,0.09,-0.26,0.97
2025-02-17 12:12:45,0.09,-0.26,0.97
2025-02-17 12:12:45,0.09,-0.26,0.97
2025-02-17 12:12:45,0.09,-0.26,0.97
2025-02-17 12:12:45,0.09,-0.26,0.97
2025-02-17 12:12:45,0.09,-0.26,0.97
2025-02-17 12:12:45,0.09,-0.26,0.97
2025-02-17 12:12:46,0.09,-0.26,0.97
2025-02-17 12:12:46,0.09,-0.26,0.97
2025-02-17 12:12:46,0.09,-0.26,0.97
2025-02-17 12:12:46,0.09,-0.26,0.97
2025-02-17 12:12:46,0.09,-0.26,0.97
2025-02-17 12:12:46,0.09,-0.26,0.97
2025-02-17 12:12:46,0.09,-0.26,0.97
2025-02-17 12:12:46,0.09,-0.26,0.97
2025-02-17 12:12:46,0.09,-0.26,0.97
2025-02-17 12:12:46,0.09,-0.26,0.97
2025-02-17 12:12:47,0.09,-0.26,0.97
2025-02-17 12:12:47,0.09,-0.26,0.97
2025-02-17 12:12:47,0.09,-0.26,0.97
2025-02-17 12:12:47,0.09,-0.26,0.97
2025-02-17 12:12:47,0.09,-0.26,0.97
2025-02-17 12:12:47,0.09,-0.26,0.97
2025-02-17 12:12:47,0.09,-0.26,0.97
2025-02-17 12:12:47,0.09,-0.26,0.97
2025-02-17 12:12:47,0.09,-0.26,0.97
2025-02-17 12:12:48,0.09,-0.26,0.97
2025-02-17 12:12:48,0.09,-0.26,0.97
2025-02-17 12:12:48,0.09,-0.26,0.97
2025-02-17 12:12:48,0.09,-0.26,0.97
2025-02-17 12:12:48,0.09,-0.26,0.97
2025-02-17 12:12:48,0.09,-0.26,0.97
2025-02-17 12:12:48,0.09,-0.26,0.97
2025-02-17 12:12:48,0.09,-0.26,0.97
2025-02-17 12:12:48,0.09,-0.26,0.97
2025-02-17 12:12:48,0.09,-0.26,0.97
2025-02-17 12:12:49,0.09,-0.26,0.97
2025-02-17 12:12:49,0.09,-0.26,0.97
2025-02-17 12:12:49,0.09,-0.26,0.97
2025-02-17 12:12:49,0.09,-0.26,0.97
2025-02-17 12:12:49,0.09,-0.26,0.97
2025-02-17 12:12:49,0.09,-0.26,0.97
2025-02-17 12:12:49,0.09,-0.26,0.97
2025-02-17 12:12:49,0.09,-0.26,0.97
2025-02-17 12:12:49,0.09,-0.26,0.97
2025-02-17 12:12:49,0.09,-0.26,0.97
2025-02-17 12:12:50,0.09,-0.26,0.97
2025-02-17 12:12:50,0.09,-0.26,0.97
2025-02-17 12:12:50,0.09,-0.26,0.97
2025-02-17 12:12:50,0.09,-0.26,0.97
2025-02-17 12:12:50,0.09,-0.26,0.97
2025-02-17 12:12:50,0.09,-0.26,0.97
2025-02-17 12:12:50,0.09,-0.26,0.97
2025-02-17 12:12:50,0.09,-0.26,0.97
2025-02-17 12:12:50,0.09,-0.26,0.97
2025-02-17 12:12:50,0.09,-0.26,0.97
2025-02-17 12:12:51,0.09,-0.26,0.97
2025-02-17 12:12:51,0.09,-0.26,0.97
2025-02-17 12:12:51,0.09,-0.26,0.97
2025-02-17 12:12:51,0.09,-0.26,0.97
2025-02-17 12:12:51,0.09,-0.26,0.97
2025-02-17 12:12:51,0.09,-0.26,0.97
2025-02-17 12:12:51,0.09,-0.26,0.97
2025-02-17 12:12:51,0.09,-0.26,0.97
2025-02-17 12:12:51,0.09,-0.26,0.97
2025-02-17 12:12:52,0.09,-0.26,0.97
2025-02-17 12:12:52,0.09,-0.26,0.97
2025-02-17 12:12:52,0.09,-0.26,0.97
2025-02-17 12:12:52,0.09,-0.26,0.97
2025-02-17 12:12:52,0.09,-0.26,0.97
2025-02-17 12:12:52,0.09,-0.26,0.97
2025-02-17 12:12:52,0.09,-0.26,0.97
2025-02-17 12:12:52,0.09,-0.26,0.97
2025-02-17 12:12:52,0.09,-0.26,0.97
2025-02-17 12:12:52,0.09,-0.26,0.97
2025-02-17 12:12:53,0.09,-0.26,0.97
2025-02-17 12:12:53,0.09,-0.26,0.97
2025-02-17 12:12:53,0.09,-0.26,0.97
2025-02-17 12:12:53,0.09,-0.26,0.97
2025-02-17 12:12:53,0.09,-0.26,0.97
2025-02-17 12:12:53,0.09,-0.26,0.97
2025-02-17 12:12:53,0.09,-0.26,0.97
2025-02-17 12:12:53,0.09,-0.26,0.97
2025-02-17 12:12:53,0.09,-0.26,0.97
2025-02-17 12:12:53,0.09,-0.26,0.97
2025-02-17 12:12:54,0.09,-0.26,0.97
2025-02-17 12:12:54,0.09,-0.26,0.97
2025-02-17 12:12:54,0.09,-0.26,0.97
2025-02-17 12:12:54,0.09,-0.26,0.97
2025-02-17 12:12:54,0.09,-0.26,0.97
2025-02-17 12:12:54,0.09,-0.26,0.97
2025-02-17 12:12:54,0.09,-0.26,0.97
2025-02-17 12:12:54,0.09,-0.26,0.97
2025-02-17 12:12:54,0.09,-0.26,0.97
2025-02-17 12:12:55,0.09,-0.26,0.97
2025-02-17 12:12:55,0.09,-0.26,0.97
2025-02-17 12:12:55,0.09,-0.26,0.97
2025-02-17 12:12:55,0.09,-0.26,0.97
2025-02-17 12:12:55,0.09,-0.26,0.97
2025-02-17 12:12:55,0.09,-0.26,0.97
2025-02-17 12:12:55,0.09,-0.26,0.98
2025-02-17 12:12:55,0.09,-0.26,0.98
2025-02-17 12:12:55,0.09,-0.26,0.98
2025-02-17 12:12:55,0.09,-0.26,0.98
2025-02-17 12:12:56,0.09,-0.26,0.98
2025-02-17 12:12:56,0.09,-0.26,0.97
2025-02-17 12:12:56,0.09,-0.26,0.97
2025-02-17 12:12:56,0.09,-0.26,0.97
2025-02-17 12:12:56,0.09,-0.26,0.97
2025-02-17 12:12:56,0.09,-0.26,0.97
2025-02-17 12:12:56,0.09,-0.26,0.97
2025-02-17 12:12:56,0.09,-0.26,0.97
2025-02-17 12:12:56,0.09,-0.26,0.97
2025-02-17 12:12:56,0.09,-0.26,0.97
2025-02-17 12:12:57,0.09,-0.26,0.97
2025-02-17 12:12:57,0.09,-0.26,0.97
2025-02-17 12:12:57,0.09,-0.26,0.97
2025-02-17 12:12:57,0.09,-0.26,0.97
2025-02-17 12:12:57,0.09,-0.26,0.97
2025-02-17 12:12:57,0.09,-0.26,0.97
2025-02-17 12:12:57,0.09,-0.26,0.97
2025-02-17 12:12:57,0.09,-0.26,0.97
2025-02-17 12:12:57,0.09,-0.26,0.97
2025-02-17 12:12:58,0.09,-0.26,0.97
2025-02-17 12:12:58,0.09,-0.26,0.97
2025-02-17 12:12:58,0.09,-0.26,0.97
2025-02-17 12:12:58,0.09,-0.26,0.97
2025-02-17 12:12:58,0.09,-0.26,0.97
2025-02-17 12:12:58,0.09,-0.26,0.97
2025-02-17 12:12:58,0.09,-0.26,0.97
2025-02-17 12:12:58,0.09,-0.26,0.97
2025-02-17 12:12:58,0.09,-0.26,0.97
2025-02-17 12:12:58,0.09,-0.26,0.97
2025-02-17 12:12:59,0.09,-0.26,0.97
2025-02-17 12:12:59,0.09,-0.26,0.97
2025-02-17 12:12:59,0.09,-0.26,0.97
2025-02-17 12:12:59,0.09,-0.26,0.97
2025-02-17 12:12:59,0.09,-0.26,0.97
2025-02-17 12:12:59,0.09,-0.26,0.97
2025-02-17 12:12:59,0.09,-0.26,0.97
2025-02-17 12:12:59,0.09,-0.26,0.97
2025-02-17 12:12:59,0.09,-0.26,0.97
2025-02-17 12:12:59,0.09,-0.26,0.97
2025-02-17 12:13:00,0.09,-0.26,0.97
2025-02-17 12:13:00,0.09,-0.26,0.97
2025-02-17 12:13:00,0.09,-0.26,0.97
2025-02-17 12:13:00,0.09,-0.26,0.97
2025-02-17 12:13:00,0.09,-0.26,0.97
2025-02-17 12:13:00,0.09,-0.26,0.97
2025-02-17 12:13:00,0.09,-0.26,0.97
2025-02-17 12:13:00,0.09,-0.26,0.97
2025-02-17 12:13:00,0.09,-0.26,0.97
2025-02-17 12:13:01,0.09,-0.26,0.97
2025-02-17 12:13:01,0.09,-0.26,0.97
2025-02-17 12:13:01,0.09,-0.26,0.97
2025-02-17 12:13:01,0.09,-0.26,0.97
2025-02-17 12:13:01,0.09,-0.26,0.97
2025-02-17 12:13:01,0.09,-0.26,0.97
2025-02-17 12:13:01,0.09,-0.26,0.97
2025-02-17 12:13:01,0.09,-0.26,0.97
2025-02-17 12:13:01,0.09,-0.26,0.97
2025-02-17 12:13:01,0.09,-0.26,0.97
2025-02-17 12:13:02,0.09,-0.26,0.97
2025-02-17 12:13:02,0.09,-0.26,0.97
2025-02-17 12:13:02,0.09,-0.26,0.97
2025-02-17 12:13:02,0.09,-0.26,0.98
2025-02-17 12:13:02,0.09,-0.26,0.97
2025-02-17 12:13:02,0.09,-0.26,0.97
2025-02-17 12:13:02,0.09,-0.26,0.97
2025-02-17 12:13:02,0.09,-0.26,0.97
2025-02-17 12:13:02,0.09,-0.26,0.97
2025-02-17 12:13:03,0.09,-0.26,0.97
2025-02-17 12:13:03,0.09,-0.26,0.97
2025-02-17 12:13:03,0.09,-0.26,0.97
2025-02-17 12:13:03,0.09,-0.26,0.97
2025-02-17 12:13:03,0.09,-0.26,0.97
2025-02-17 12:13:03,0.09,-0.26,0.97
2025-02-17 12:13:03,0.09,-0.26,0.98
2025-02-17 12:13:03,0.09,-0.26,0.97
2025-02-17 12:13:03,0.09,-0.26,0.97
2025-02-17 12:13:04,0.09,-0.26,0.97
2025-02-17 12:13:04,0.09,-0.26,0.97
2025-02-17 12:13:04,0.09,-0.26,0.97
2025-02-17 12:13:04,0.09,-0.26,0.97
2025-02-17 12:13:04,0.09,-0.26,0.97
2025-02-17 12:13:04,0.09,-0.26,0.97
2025-02-17 12:13:04,0.09,-0.26,0.97
2025-02-17 12:13:04,0.09,-0.26,0.97
2025-02-17 12:13:04,0.09,-0.26,0.97
2025-02-17 12:13:04,0.09,-0.26,0.97
2025-02-17 12:13:05,0.09,-0.26,0.97
2025-02-17 12:13:05,0.09,-0.26,0.97
2025-02-17 12:13:05,0.09,-0.26,0.97
2025-02-17 12:13:05,0.09,-0.26,0.97
2025-02-17 12:13:05,0.09,-0.26,0.97
2025-02-17 12:13:05,0.09,-0.26,0.97
2025-02-17 12:13:05,0.09,-0.26,0.98
2025-02-17 12:13:05,0.09,-0.26,0.97
2025-02-17 12:13:05,0.09,-0.26,0.97
2025-02-17 12:13:05,0.09,-0.26,0.97
2025-02-17 12:13:06,0.09,-0.26,0.97
2025-02-17 12:13:06,0.09,-0.26,0.97
2025-02-17 12:13:06,0.09,-0.26,0.97
2025-02-17 12:13:06,0.09,-0.26,0.97
2025-02-17 12:13:06,0.09,-0.26,0.97
2025-02-17 12:13:06,0.09,-0.26,0.97
2025-02-17 12:13:06,0.09,-0.26,0.97
2025-02-17 12:13:06,0.09,-0.26,0.97
2025-02-17 12:13:06,0.09,-0.26,0.97
2025-02-17 12:13:07,0.09,-0.26,0.97
2025-02-17 12:13:07,0.09,-0.26,0.97
2025-02-17 12:13:07,0.09,-0.26,0.97
2025-02-17 12:13:07,0.09,-0.26,0.97
2025-02-17 12:13:07,0.09,-0.26,0.97
2025-02-17 12:13:07,0.09,-0.26,0.97
2025-02-17 12:13:07,0.09,-0.26,0.97
2025-02-17 12:13:07,0.09,-0.26,0.97
2025-02-17 12:13:07,0.09,-0.26,0.98
2025-02-17 12:13:07,0.09,-0.26,0.98
2025-02-17 12:13:08,0.09,-0.26,0.97
2025-02-17 12:13:08,0.09,-0.26,0.97
2025-02-17 12:13:08,0.09,-0.26,0.97
2025-02-17 12:13:08,0.09,-0.26,0.97
2025-02-17 12:13:08,0.09,-0.26,0.97
2025-02-17 12:13:08,0.09,-0.26,0.97
2025-02-17 12:13:08,0.09,-0.26,0.97
2025-02-17 12:13:08,0.09,-0.26,0.97
2025-02-17 12:13:08,0.09,-0.26,0.97
2025-02-17 12:13:08,0.09,-0.26,0.97
2025-02-17 12:13:09,0.09,-0.26,0.97
2025-02-17 12:13:09,0.09,-0.26,0.97
2025-02-17 12:13:09,0.09,-0.26,0.97
2025-02-17 12:13:09,0.09,-0.26,0.97
2025-02-17 12:13:09,0.09,-0.26,0.97
2025-02-17 12:13:09,0.09,-0.26,0.98
2025-02-17 12:13:09,0.09,-0.26,0.98
2025-02-17 12:13:09,0.09,-0.26,0.97
2025-02-17 12:13:09,0.09,-0.26,0.97
2025-02-17 12:13:10,0.09,-0.26,0.97
2025-02-17 12:13:10,0.09,-0.26,0.97
2025-02-17 12:13:10,0.09,-0.26,0.97
2025-02-17 12:13:10,0.09,-0.26,0.97
2025-02-17 12:13:10,0.09,-0.26,0.97
2025-02-17 12:13:10,0.09,-0.26,0.97
2025-02-17 12:13:10,0.09,-0.26,0.97
2025-02-17 12:13:10,0.09,-0.26,0.97
2025-02-17 12:13:10,0.09,-0.26,0.97
2025-02-17 12:13:10,0.09,-0.26,0.97
2025-02-17 12:13:11,0.09,-0.26,0.97
2025-02-17 12:13:11,0.09,-0.26,0.98
2025-02-17 12:13:11,0.09,-0.26,0.97
2025-02-17 12:13:11,0.09,-0.26,0.97
2025-02-17 12:13:11,0.09,-0.26,0.97
2025-02-17 12:13:11,0.09,-0.26,0.97
2025-02-17 12:13:11,0.09,-0.26,0.97
2025-02-17 12:13:11,0.09,-0.26,0.97
2025-02-17 12:13:11,0.09,-0.26,0.97
2025-02-17 12:13:11,0.09,-0.26,0.97
2025-02-17 12:13:12,0.09,-0.26,0.97
2025-02-17 12:13:12,0.09,-0.26,0.97
2025-02-17 12:13:12,0.09,-0.26,0.97
2025-02-17 12:13:12,0.09,-0.26,0.98
2025-02-17 12:13:12,0.09,-0.26,0.97
2025-02-17 12:13:12,0.09,-0.26,0.97
2025-02-17 12:13:12,0.09,-0.26,0.97
2025-02-17 12:13:12,0.09,-0.26,0.97
2025-02-17 12:13:12,0.09,-0.26,0.97
2025-02-17 12:13:12,0.09,-0.26,0.97
2025-02-17 12:13:13,0.09,-0.26,0.97
2025-02-17 12:13:13,0.09,-0.26,0.97
2025-02-17 12:13:13,0.09,-0.26,0.97
2025-02-17 12:13:13,0.09,-0.26,0.97
2025-02-17 12:13:13,0.09,-0.26,0.97
2025-02-17 12:13:13,0.09,-0.26,0.97
2025-02-17 12:13:13,0.09,-0.26,0.97
2025-02-17 12:13:13,0.09,-0.26,0.97
2025-02-17 12:13:13,0.09,-0.26,0.97
2025-02-17 12:13:14,0.09,-0.26,0.97
2025-02-17 12:13:14,0.09,-0.26,0.97
2025-02-17 12:13:14,0.09,-0.26,0.97
2025-02-17 12:13:14,0.09,-0.26,0.97
2025-02-17 12:13:14,0.09,-0.26,0.97
2025-02-17 12:13:14,0.09,-0.26,0.97
2025-02-17 12:13:14,0.09,-0.26,0.97
2025-02-17 12:13:14,0.09,-0.26,0.97
2025-02-17 12:13:14,0.09,-0.26,0.97
2025-02-17 12:13:14,0.09,-0.26,0.97
2025-02-17 12:13:15,0.09,-0.26,0.97
2025-02-17 12:13:15,0.09,-0.26,0.97
2025-02-17 12:13:15,0.09,-0.26,0.97
2025-02-17 12:13:15,0.09,-0.26,0.97
2025-02-17 12:13:15,0.09,-0.26,0.97
2025-02-17 12:13:15,0.09,-0.26,0.97
2025-02-17 12:13:15,0.09,-0.26,0.97
2025-02-17 12:13:15,0.09,-0.26,0.97
2025-02-17 12:13:15,0.09,-0.26,0.97
2025-02-17 12:13:15,0.09,-0.26,0.97
2025-02-17 12:13:16,0.09,-0.26,0.97
2025-02-17 12:13:16,0.09,-0.26,0.97
2025-02-17 12:13:16,0.09,-0.26,0.97
2025-02-17 12:13:16,0.09,-0.26,0.97
2025-02-17 12:13:16,0.09,-0.26,0.97
2025-02-17 12:13:16,0.09,-0.26,0.97
2025-02-17 12:13:16,0.09,-0.26,0.97
2025-02-17 12:13:16,0.09,-0.26,0.97
2025-02-17 12:13:16,0.09,-0.26,0.97
2025-02-17 12:13:17,0.09,-0.26,0.97
2025-02-17 12:13:17,0.09,-0.26,0.97
2025-02-17 12:13:17,0.09,-0.26,0.97
2025-02-17 12:13:17,0.09,-0.26,0.97
2025-02-17 12:13:17,0.09,-0.26,0.97
2025-02-17 12:13:17,0.09,-0.26,0.97
2025-02-17 12:13:17,0.09,-0.26,0.97
2025-02-17 12:13:17,0.09,-0.26,0.97
2025-02-17 12:13:17,0.09,-0.26,0.97
2025-02-17 12:13:17,0.09,-0.26,0.97
2025-02-17 12:13:18,0.09,-0.26,0.97
2025-02-17 12:13:18,0.09,-0.26,0.97
2025-02-17 12:13:18,0.09,-0.26,0.97
2025-02-17 12:13:18,0.09,-0.26,0.97
2025-02-17 12:13:18,0.09,-0.26,0.97
2025-02-17 12:13:18,0.09,-0.26,0.97
2025-02-17 12:13:18,0.09,-0.26,0.97
2025-02-17 12:13:18,0.09,-0.26,0.98
2025-02-17 12:13:18,0.09,-0.26,0.97
2025-02-17 12:13:18,0.09,-0.26,0.97
2025-02-17 12:13:19,0.09,-0.26,0.97
2025-02-17 12:13:19,0.09,-0.26,0.97
2025-02-17 12:13:19,0.09,-0.26,0.97
2025-02-17 12:13:19,0.09,-0.26,0.97
2025-02-17 12:13:19,0.09,-0.26,0.97
2025-02-17 12:13:19,0.09,-0.26,0.97
2025-02-17 12:13:19,0.09,-0.26,0.97
2025-02-17 12:13:19,0.09,-0.26,0.97
2025-02-17 12:13:19,0.09,-0.26,0.97
2025-02-17 12:13:20,0.09,-0.26,0.97
2025-02-17 12:13:20,0.09,-0.26,0.97
2025-02-17 12:13:20,0.09,-0.26,0.97
2025-02-17 12:13:20,0.09,-0.26,0.97
2025-02-17 12:13:20,0.09,-0.26,0.97
2025-02-17 12:13:20,0.09,-0.26,0.97
2025-02-17 12:13:20,0.09,-0.26,0.97
2025-02-17 12:13:20,0.09,-0.26,0.97
2025-02-17 12:13:20,0.09,-0.26,0.97
2025-02-17 12:13:20,0.09,-0.26,0.97
2025-02-17 12:13:21,0.09,-0.26,0.97
2025-02-17 12:13:21,0.09,-0.26,0.97
2025-02-17 12:13:21,0.09,-0.26,0.97
2025-02-17 12:13:21,0.09,-0.26,0.97
2025-02-17 12:13:21,0.09,-0.26,0.97
2025-02-17 12:13:21,0.09,-0.26,0.97
2025-02-17 12:13:21,0.09,-0.26,0.97
2025-02-17 12:13:21,0.09,-0.26,0.97
2025-02-17 12:13:21,0.09,-0.26,0.97
2025-02-17 12:13:21,0.09,-0.26,0.97
2025-02-17 12:13:22,0.09,-0.26,0.97
2025-02-17 12:13:22,0.09,-0.26,0.97
2025-02-17 12:13:22,0.09,-0.26,0.97
2025-02-17 12:13:22,0.09,-0.26,0.97
2025-02-17 12:13:22,0.09,-0.26,0.97
2025-02-17 12:13:22,0.09,-0.26,0.97
2025-02-17 12:13:22,0.09,-0.26,0.97
2025-02-17 12:13:22,0.09,-0.26,0.97
2025-02-17 12:13:23,0.09,-0.26,0.97
2025-02-17 12:13:23,0.09,-0.26,0.97
2025-02-17 12:13:23,0.09,-0.26,0.97
2025-02-17 12:13:23,0.09,-0.26,0.97
2025-02-17 12:13:23,0.09,-0.26,0.97
2025-02-17 12:13:23,0.09,-0.26,0.97
2025-02-17 12:13:23,0.09,-0.26,0.97
2025-02-17 12:13:23,0.09,-0.26,0.97
2025-02-17 12:13:23,0.09,-0.26,0.97
2025-02-17 12:13:23,0.09,-0.26,0.97
2025-02-17 12:13:24,0.09,-0.26,0.97
2025-02-17 12:13:24,0.09,-0.26,0.97
2025-02-17 12:13:24,0.09,-0.26,0.97
2025-02-17 12:13:24,0.09,-0.26,0.97
2025-02-17 12:13:24,0.09,-0.26,0.97
2025-02-17 12:13:24,0.09,-0.26,0.97
2025-02-17 12:13:24,0.09,-0.26,0.97
2025-02-17 12:13:24,0.09,-0.26,0.97
2025-02-17 12:13:24,0.09,-0.26,0.97
2025-02-17 12:13:24,0.09,-0.26,0.97
2025-02-17 12:13:25,0.09,-0.26,0.97
2025-02-17 12:13:25,0.09,-0.26,0.97
2025-02-17 12:13:25,0.09,-0.26,0.97
2025-02-17 12:13:25,0.09,-0.26,0.97
2025-02-17 12:13:25,0.09,-0.26,0.97
2025-02-17 12:13:25,0.09,-0.26,0.97
2025-02-17 12:13:25,0.09,-0.26,0.97
2025-02-17 12:13:25,0.09,-0.26,0.97
2025-02-17 12:13:25,0.09,-0.26,0.97
2025-02-17 12:13:26,0.09,-0.26,0.97
2025-02-17 12:13:26,0.09,-0.26,0.97
2025-02-17 12:13:26,0.09,-0.26,0.97
2025-02-17 12:13:26,0.09,-0.26,0.97
2025-02-17 12:13:26,0.09,-0.26,0.97
2025-02-17 12:13:26,0.09,-0.26,0.97
2025-02-17 12:13:26,0.09,-0.26,0.97
2025-02-17 12:13:26,0.09,-0.26,0.97
2025-02-17 12:13:26,0.09,-0.26,0.97
2025-02-17 12:13:26,0.09,-0.26,0.97
2025-02-17 12:13:27,0.09,-0.26,0.97
2025-02-17 12:13:27,0.09,-0.26,0.97
2025-02-17 12:13:27,0.09,-0.26,0.97
2025-02-17 12:13:27,0.09,-0.26,0.97
2025-02-17 12:13:27,0.09,-0.26,0.97
2025-02-17 12:13:27,0.09,-0.26,0.97
2025-02-17 12:13:27,0.09,-0.26,0.97
2025-02-17 12:13:27,0.09,-0.26,0.97
2025-02-17 12:13:27,0.09,-0.26,0.97
2025-02-17 12:13:28,0.09,-0.26,0.97
2025-02-17 12:13:28,0.09,-0.26,0.97
2025-02-17 12:13:28,0.09,-0.26,0.97
2025-02-17 12:13:28,0.09,-0.26,0.97
2025-02-17 12:13:28,0.09,-0.26,0.97
2025-02-17 12:13:28,0.09,-0.26,0.97
2025-02-17 12:13:28,0.09,-0.26,0.97
2025-02-17 12:13:28,0.09,-0.26,0.97
2025-02-17 12:13:28,0.09,-0.26,0.97
2025-02-17 12:13:28,0.09,-0.26,0.97
2025-02-17 12:13:29,0.09,-0.26,0.97
2025-02-17 12:13:29,0.09,-0.26,0.97
2025-02-17 12:13:29,0.09,-0.26,0.97
2025-02-17 12:13:29,0.09,-0.26,0.97
2025-02-17 12:13:29,0.09,-0.26,0.97
2025-02-17 12:13:29,0.09,-0.26,0.97
2025-02-17 12:13:29,0.09,-0.26,0.97
2025-02-17 12:13:29,0.09,-0.26,0.97
2025-02-17 12:13:29,0.09,-0.26,0.97
2025-02-17 12:13:29,0.09,-0.26,0.97
2025-02-17 12:13:30,0.09,-0.26,0.97
2025-02-17 12:13:30,0.09,-0.26,0.97
2025-02-17 12:13:30,0.09,-0.26,0.97
2025-02-17 12:13:30,0.09,-0.26,0.97
2025-02-17 12:13:30,0.09,-0.26,0.97
2025-02-17 12:13:30,0.09,-0.26,0.97
2025-02-17 12:13:30,0.09,-0.26,0.97
2025-02-17 12:13:30,0.09,-0.26,0.97
2025-02-17 12:13:30,0.09,-0.26,0.97
2025-02-17 12:13:31,0.09,-0.26,0.97
2025-02-17 12:13:31,0.09,-0.26,0.97
2025-02-17 12:13:31,0.09,-0.26,0.97
2025-02-17 12:13:31,0.09,-0.26,0.97
2025-02-17 12:13:31,0.09,-0.26,0.97
2025-02-17 12:13:31,0.09,-0.26,0.97
2025-02-17 12:13:31,0.09,-0.26,0.97
2025-02-17 12:13:31,0.09,-0.26,0.97
2025-02-17 12:13:31,0.09,-0.26,0.97
2025-02-17 12:13:32,0.09,-0.26,0.97
2025-02-17 12:13:32,0.09,-0.26,0.97
2025-02-17 12:13:32,0.09,-0.26,0.97
2025-02-17 12:13:32,0.09,-0.26,0.97
2025-02-17 12:13:32,0.09,-0.26,0.97
2025-02-17 12:13:32,0.09,-0.26,0.97
2025-02-17 12:13:32,0.09,-0.26,0.97
2025-02-17 12:13:32,0.09,-0.26,0.97
2025-02-17 12:13:32,0.09,-0.26,0.97
2025-02-17 12:13:32,0.09,-0.26,0.97
2025-02-17 12:13:33,0.09,-0.26,0.97
2025-02-17 12:13:33,0.09,-0.26,0.97
2025-02-17 12:13:33,0.09,-0.26,0.97
2025-02-17 12:13:33,0.09,-0.26,0.97
2025-02-17 12:13:33,0.09,-0.26,0.97
2025-02-17 12:13:33,0.09,-0.26,0.97
2025-02-17 12:13:33,0.09,-0.26,0.97
2025-02-17 12:13:33,0.09,-0.26,0.97
2025-02-17 12:13:33,0.09,-0.26,0.97
2025-02-17 12:13:34,0.09,-0.26,0.97
2025-02-17 12:13:34,0.09,-0.26,0.97
2025-02-17 12:13:34,0.09,-0.26,0.97
2025-02-17 12:13:34,0.09,-0.26,0.97
2025-02-17 12:13:34,0.09,-0.26,0.97
2025-02-17 12:13:34,0.09,-0.26,0.97
2025-02-17 12:13:34,0.09,-0.26,0.97
2025-02-17 12:13:34,0.09,-0.26,0.97
2025-02-17 12:13:34,0.09,-0.26,0.97
2025-02-17 12:13:34,0.09,-0.26,0.97
2025-02-17 12:13:35,0.09,-0.26,0.97
2025-02-17 12:13:35,0.09,-0.26,0.97
2025-02-17 12:13:35,0.09,-0.26,0.97
2025-02-17 12:13:35,0.09,-0.26,0.97
2025-02-17 12:13:35,0.09,-0.26,0.97
2025-02-17 12:13:35,0.09,-0.26,0.97
2025-02-17 12:13:35,0.09,-0.26,0.97
2025-02-17 12:13:35,0.09,-0.26,0.97
2025-02-17 12:13:35,0.09,-0.26,0.97
2025-02-17 12:13:35,0.09,-0.26,0.97
2025-02-17 12:13:36,0.09,-0.26,0.97
2025-02-17 12:13:36,0.09,-0.26,0.97
2025-02-17 12:13:36,0.09,-0.26,0.97
2025-02-17 12:13:36,0.09,-0.26,0.97
2025-02-17 12:13:36,0.09,-0.26,0.97
2025-02-17 12:13:36,0.09,-0.26,0.97
2025-02-17 12:13:36,0.09,-0.26,0.97
2025-02-17 12:13:36,0.09,-0.26,0.97
2025-02-17 12:13:36,0.09,-0.26,0.97
2025-02-17 12:13:37,0.09,-0.26,0.97
2025-02-17 12:13:37,0.09,-0.26,0.97
2025-02-17 12:13:37,0.09,-0.26,0.97
2025-02-17 12:13:37,0.09,-0.26,0.97
2025-02-17 12:13:37,0.09,-0.26,0.97
2025-02-17 12:13:37,0.09,-0.26,0.97
2025-02-17 12:13:37,0.09,-0.26,0.97
2025-02-17 12:13:37,0.09,-0.26,0.97
2025-02-17 12:13:37,0.09,-0.26,0.97
2025-02-17 12:13:37,0.09,-0.26,0.97
2025-02-17 12:13:38,0.09,-0.26,0.98
2025-02-17 12:13:38,0.09,-0.26,0.97
2025-02-17 12:13:38,0.09,-0.26,0.97
2025-02-17 12:13:38,0.09,-0.26,0.97
2025-02-17 12:13:38,0.09,-0.26,0.97
2025-02-17 12:13:38,0.09,-0.26,0.97
2025-02-17 12:13:38,0.09,-0.26,0.97
2025-02-17 12:13:38,0.09,-0.26,0.97
2025-02-17 12:13:38,0.09,-0.26,0.97
2025-02-17 12:13:38,0.09,-0.26,0.97
2025-02-17 12:13:39,0.09,-0.26,0.97
2025-02-17 12:13:39,0.09,-0.26,0.97
2025-02-17 12:13:39,0.09,-0.26,0.97
2025-02-17 12:13:39,0.09,-0.26,0.97
2025-02-17 12:13:39,0.09,-0.26,0.97
2025-02-17 12:13:39,0.09,-0.26,0.97
2025-02-17 12:13:39,0.09,-0.26,0.97
2025-02-17 12:13:39,0.09,-0.26,0.97
2025-02-17 12:13:39,0.09,-0.26,0.97
2025-02-17 12:13:40,0.09,-0.26,0.98
2025-02-17 12:13:40,0.09,-0.26,0.97
2025-02-17 12:13:40,0.09,-0.26,0.97
2025-02-17 12:13:40,0.09,-0.26,0.97
2025-02-17 12:13:40,0.09,-0.26,0.97
2025-02-17 12:13:40,0.09,-0.26,0.97
2025-02-17 12:13:40,0.09,-0.26,0.97
2025-02-17 12:13:40,0.09,-0.26,0.97
2025-02-17 12:13:40,0.09,-0.26,0.97
2025-02-17 12:13:40,0.09,-0.26,0.97
2025-02-17 12:13:41,0.09,-0.26,0.97
2025-02-17 12:13:41,0.09,-0.26,0.97
2025-02-17 12:13:41,0.09,-0.26,0.97
2025-02-17 12:13:41,0.09,-0.26,0.97
2025-02-17 12:13:41,0.09,-0.26,0.97
2025-02-17 12:13:41,0.09,-0.26,0.97
2025-02-17 12:13:41,0.09,-0.26,0.97
2025-02-17 12:13:41,0.09,-0.26,0.97
2025-02-17 12:13:41,0.09,-0.26,0.97
2025-02-17 12:13:41,0.09,-0.26,0.97
2025-02-17 12:13:42,0.09,-0.26,0.97
2025-02-17 12:13:42,0.09,-0.26,0.97
2025-02-17 12:13:42,0.09,-0.26,0.97
2025-02-17 12:13:42,0.09,-0.26,0.97
2025-02-17 12:13:42,0.09,-0.26,0.97
2025-02-17 12:13:42,0.09,-0.26,0.97
2025-02-17 12:13:42,0.09,-0.26,0.97
2025-02-17 12:13:42,0.09,-0.26,0.97
2025-02-17 12:13:42,0.09,-0.26,0.97
2025-02-17 12:13:43,0.09,-0.26,0.97
2025-02-17 12:13:43,0.09,-0.26,0.97
2025-02-17 12:13:43,0.09,-0.26,0.97
2025-02-17 12:13:43,0.09,-0.26,0.97
2025-02-17 12:13:43,0.09,-0.26,0.97
2025-02-17 12:13:43,0.09,-0.26,0.97
2025-02-17 12:13:43,0.09,-0.26,0.97
2025-02-17 12:13:43,0.09,-0.26,0.97
2025-02-17 12:13:43,0.09,-0.26,0.97
2025-02-17 12:13:43,0.09,-0.26,0.97
2025-02-17 12:13:44,0.09,-0.26,0.97
2025-02-17 12:13:44,0.09,-0.26,0.97
2025-02-17 12:13:44,0.09,-0.26,0.97
2025-02-17 12:13:44,0.09,-0.26,0.97
2025-02-17 12:13:44,0.09,-0.26,0.97
2025-02-17 12:13:44,0.09,-0.26,0.97
2025-02-17 12:13:44,0.09,-0.26,0.97
2025-02-17 12:13:44,0.09,-0.26,0.97
2025-02-17 12:13:44,0.09,-0.26,0.97
2025-02-17 12:13:44,0.09,-0.26,0.97
2025-02-17 12:13:45,0.09,-0.26,0.97
2025-02-17 12:13:45,0.09,-0.26,0.97
2025-02-17 12:13:45,0.09,-0.26,0.97
2025-02-17 12:13:45,0.09,-0.26,0.97
2025-02-17 12:13:45,0.09,-0.26,0.97
2025-02-17 12:13:45,0.09,-0.26,0.97
2025-02-17 12:13:45,0.09,-0.26,0.97
2025-02-17 12:13:45,0.09,-0.26,0.97
2025-02-17 12:13:45,0.09,-0.26,0.97
2025-02-17 12:13:46,0.09,-0.26,0.97
2025-02-17 12:13:46,0.09,-0.26,0.97
2025-02-17 12:13:46,0.09,-0.26,0.97
2025-02-17 12:13:46,0.09,-0.26,0.97
2025-02-17 12:13:46,0.09,-0.26,0.97
2025-02-17 12:13:46,0.09,-0.26,0.97
2025-02-17 12:13:46,0.09,-0.26,0.97
2025-02-17 12:13:46,0.09,-0.26,0.97
2025-02-17 12:13:46,0.09,-0.26,0.97
2025-02-17 12:13:46,0.09,-0.26,0.97
2025-02-17 12:13:47,0.09,-0.26,0.97
2025-02-17 12:13:47,0.09,-0.26,0.97
2025-02-17 12:13:47,0.09,-0.26,0.97
2025-02-17 12:13:47,0.09,-0.26,0.97
2025-02-17 12:13:47,0.09,-0.26,0.97
2025-02-17 12:13:47,0.09,-0.26,0.97
2025-02-17 12:13:47,0.09,-0.26,0.97
2025-02-17 12:13:47,0.09,-0.26,0.97
2025-02-17 12:13:47,0.09,-0.26,0.97
2025-02-17 12:13:47,0.09,-0.26,0.97
2025-02-17 12:13:48,0.09,-0.26,0.97
2025-02-17 12:13:48,0.09,-0.26,0.97
2025-02-17 12:13:48,0.09,-0.26,0.97
2025-02-17 12:13:48,0.09,-0.26,0.97
2025-02-17 12:13:48,0.09,-0.26,0.97
2025-02-17 12:13:48,0.09,-0.26,0.98
2025-02-17 12:13:48,0.09,-0.26,0.98
2025-02-17 12:13:48,0.09,-0.26,0.98
2025-02-17 12:13:48,0.09,-0.26,0.97
2025-02-17 12:13:49,0.09,-0.26,0.97
2025-02-17 12:13:49,0.09,-0.26,0.97
2025-02-17 12:13:49,0.09,-0.26,0.97
2025-02-17 12:13:49,0.09,-0.26,0.97
2025-02-17 12:13:49,0.09,-0.26,0.97
2025-02-17 12:13:49,0.09,-0.26,0.98
2025-02-17 12:13:49,0.09,-0.26,0.98
2025-02-17 12:13:49,0.09,-0.26,0.98
2025-02-17 12:13:49,0.09,-0.26,0.97
2025-02-17 12:13:49,0.09,-0.26,0.97
2025-02-17 12:13:50,0.09,-0.26,0.97
2025-02-17 12:13:50,0.09,-0.26,0.97
2025-02-17 12:13:50,0.09,-0.26,0.97
2025-02-17 12:13:50,0.09,-0.26,0.98
2025-02-17 12:13:50,0.09,-0.26,0.98
2025-02-17 12:13:50,0.09,-0.26,0.97
2025-02-17 12:13:50,0.09,-0.26,0.97
2025-02-17 12:13:50,0.09,-0.26,0.97
2025-02-17 12:13:50,0.09,-0.26,0.97
2025-02-17 12:13:50,0.09,-0.26,0.97
2025-02-17 12:13:51,0.09,-0.26,0.97
2025-02-17 12:13:51,0.09,-0.26,0.97
2025-02-17 12:13:51,0.09,-0.26,0.97
2025-02-17 12:13:51,0.09,-0.26,0.98
2025-02-17 12:13:51,0.09,-0.26,0.97
2025-02-17 12:13:51,0.09,-0.26,0.97
2025-02-17 12:13:51,0.09,-0.26,0.97
2025-02-17 12:13:51,0.09,-0.26,0.97
2025-02-17 12:13:51,0.09,-0.26,0.97
2025-02-17 12:13:52,0.09,-0.26,0.97
2025-02-17 12:13:52,0.09,-0.26,0.97
2025-02-17 12:13:52,0.09,-0.26,0.97
2025-02-17 12:13:52,0.09,-0.26,0.97
2025-02-17 12:13:52,0.09,-0.26,0.97
2025-02-17 12:13:52,0.09,-0.26,0.97
2025-02-17 12:13:52,0.09,-0.26,0.98
2025-02-17 12:13:52,0.09,-0.26,0.98
2025-02-17 12:13:52,0.09,-0.26,0.97
2025-02-17 12:13:52,0.09,-0.26,0.97
2025-02-17 12:13:53,0.09,-0.26,0.97
2025-02-17 12:13:53,0.09,-0.26,0.97
2025-02-17 12:13:53,0.09,-0.26,0.97
2025-02-17 12:13:53,0.09,-0.26,0.97
2025-02-17 12:13:53,0.09,-0.26,0.98
2025-02-17 12:13:53,0.09,-0.26,0.97
2025-02-17 12:13:53,0.09,-0.26,0.97
2025-02-17 12:13:53,0.09,-0.26,0.97
2025-02-17 12:13:53,0.09,-0.26,0.97
2025-02-17 12:13:53,0.09,-0.26,0.97
2025-02-17 12:13:54,0.09,-0.26,0.97
2025-02-17 12:13:54,0.09,-0.26,0.97
2025-02-17 12:13:54,0.09,-0.26,0.97
2025-02-17 12:13:54,0.09,-0.26,0.97
2025-02-17 12:13:54,0.09,-0.26,0.97
2025-02-17 12:13:54,0.09,-0.26,0.97
2025-02-17 12:13:54,0.09,-0.26,0.97
2025-02-17 12:13:54,0.09,-0.26,0.97
2025-02-17 12:13:54,0.09,-0.26,0.97
2025-02-17 12:13:55,0.09,-0.26,0.97
2025-02-17 12:13:55,0.09,-0.26,0.97
2025-02-17 12:13:55,0.09,-0.26,0.97
2025-02-17 12:13:55,0.09,-0.26,0.97
2025-02-17 12:13:55,0.09,-0.26,0.97
2025-02-17 12:13:55,0.09,-0.26,0.97
2025-02-17 12:13:55,0.09,-0.26,0.97
2025-02-17 12:13:55,0.09,-0.26,0.97
2025-02-17 12:13:55,0.09,-0.26,0.97
2025-02-17 12:13:55,0.09,-0.26,0.97
2025-02-17 12:13:56,0.09,-0.26,0.97
2025-02-17 12:13:56,0.09,-0.26,0.97
2025-02-17 12:13:56,0.09,-0.26,0.97
2025-02-17 12:13:56,0.09,-0.26,0.97
2025-02-17 12:13:56,0.09,-0.26,0.97
2025-02-17 12:13:56,0.09,-0.26,0.97
2025-02-17 12:13:56,0.09,-0.26,0.97
2025-02-17 12:13:56,0.09,-0.26,0.98
2025-02-17 12:13:56,0.09,-0.26,0.97
2025-02-17 12:13:56,0.09,-0.26,0.97
2025-02-17 12:13:57,0.09,-0.26,0.97
2025-02-17 12:13:57,0.09,-0.26,0.97
2025-02-17 12:13:57,0.09,-0.26,0.97
2025-02-17 12:13:57,0.09,-0.26,0.97
2025-02-17 12:13:57,0.09,-0.26,0.97
2025-02-17 12:13:57,0.09,-0.26,0.97
2025-02-17 12:13:57,0.09,-0.26,0.97
2025-02-17 12:13:57,0.09,-0.26,0.97
2025-02-17 12:13:57,0.09,-0.26,0.97
2025-02-17 12:13:58,0.09,-0.26,0.97
2025-02-17 12:13:58,0.09,-0.26,0.97
2025-02-17 12:13:58,0.09,-0.26,0.97
2025-02-17 12:13:58,0.09,-0.26,0.97
2025-02-17 12:13:58,0.09,-0.26,0.97
2025-02-17 12:13:58,0.09,-0.26,0.97
2025-02-17 12:13:58,0.09,-0.26,0.97
2025-02-17 12:13:58,0.09,-0.26,0.97
2025-02-17 12:13:58,0.09,-0.26,0.97
2025-02-17 12:13:58,0.09,-0.26,0.97
2025-02-17 12:13:59,0.09,-0.26,0.97
2025-02-17 12:13:59,0.09,-0.26,0.97
2025-02-17 12:13:59,0.09,-0.26,0.97
2025-02-17 12:13:59,0.09,-0.26,0.97
2025-02-17 12:14:09,0.09,-0.26,0.97
2025-02-17 12:14:10,0.09,-0.26,0.97
2025-02-17 12:14:10,0.09,-0.26,0.97
2025-02-17 12:14:10,0.09,-0.26,0.97
2025-02-17 12:14:10,0.09,-0.26,0.97
2025-02-17 12:14:10,0.09,-0.26,0.97
2025-02-17 12:14:10,0.09,-0.26,0.97
2025-02-17 12:14:10,0.09,-0.26,0.97
2025-02-17 12:14:10,0.09,-0.26,0.97
2025-02-17 12:14:11,0.09,-0.26,0.97
2025-02-17 12:14:11,0.09,-0.26,0.97
2025-02-17 12:14:11,0.09,-0.26,0.97
2025-02-17 12:14:11,0.09,-0.26,0.97
2025-02-17 12:14:11,0.09,-0.26,0.97
2025-02-17 12:14:11,0.09,-0.26,0.97
2025-02-17 12:14:11,0.09,-0.26,0.97
2025-02-17 12:14:11,0.09,-0.26,0.97
2025-02-17 12:14:11,0.09,-0.26,0.97
2025-02-17 12:14:11,0.09,-0.26,0.97
2025-02-17 12:14:12,0.09,-0.26,0.97
2025-02-17 12:14:12,0.09,-0.26,0.97
2025-02-17 12:14:12,0.09,-0.26,0.97
2025-02-17 12:14:12,0.09,-0.26,0.97
2025-02-17 12:14:12,0.09,-0.26,0.97
2025-02-17 12:14:12,0.09,-0.26,0.97
2025-02-17 12:14:12,0.09,-0.26,0.97
2025-02-17 12:14:12,0.09,-0.26,0.97
2025-02-17 12:14:13,0.09,-0.26,0.97
2025-02-17 12:14:13,0.09,-0.26,0.97
2025-02-17 12:14:13,0.09,-0.26,0.97
2025-02-17 12:14:13,0.09,-0.26,0.97
2025-02-17 12:14:13,0.09,-0.26,0.97
2025-02-17 12:14:13,0.09,-0.26,0.97
2025-02-17 12:14:13,0.09,-0.26,0.97
2025-02-17 12:14:13,0.09,-0.26,0.97
2025-02-17 12:14:13,0.09,-0.26,0.97
2025-02-17 12:14:14,0.09,-0.26,0.97
2025-02-17 12:14:14,0.09,-0.26,0.97
2025-02-17 12:14:14,0.09,-0.26,0.97
2025-02-17 12:14:14,0.09,-0.26,0.97
2025-02-17 12:14:14,0.09,-0.26,0.97
2025-02-17 12:14:14,0.09,-0.26,0.97
2025-02-17 12:14:14,0.09,-0.26,0.97
2025-02-17 12:14:14,0.09,-0.26,0.97
2025-02-17 12:14:14,0.09,-0.26,0.97
2025-02-17 12:14:15,0.09,-0.26,0.97
2025-02-17 12:14:15,0.09,-0.26,0.97
2025-02-17 12:14:15,0.09,-0.26,0.97
2025-02-17 12:14:15,0.09,-0.26,0.97
2025-02-17 12:14:15,0.09,-0.26,0.97
2025-02-17 12:14:15,0.09,-0.26,0.97
2025-02-17 12:14:15,0.09,-0.26,0.97
2025-02-17 12:14:15,0.09,-0.26,0.97
2025-02-17 12:14:15,0.09,-0.26,0.97
2025-02-17 12:14:15,0.09,-0.26,0.97
2025-02-17 12:14:16,0.09,-0.26,0.97
2025-02-17 12:14:16,0.09,-0.26,0.97
2025-02-17 12:14:16,0.09,-0.26,0.97
2025-02-17 12:14:16,0.09,-0.26,0.97
2025-02-17 12:14:16,0.09,-0.26,0.97
2025-02-17 12:14:16,0.09,-0.26,0.97
2025-02-17 12:14:16,0.09,-0.26,0.97
2025-02-17 12:14:16,0.09,-0.26,0.97
2025-02-17 12:14:16,0.09,-0.26,0.97
2025-02-17 12:14:17,0.09,-0.26,0.97
2025-02-17 12:14:17,0.09,-0.26,0.97
2025-02-17 12:14:17,0.09,-0.26,0.97
2025-02-17 12:14:17,0.09,-0.26,0.97
2025-02-17 12:14:17,0.09,-0.26,0.97
2025-02-17 12:14:17,0.09,-0.26,0.97
2025-02-17 12:14:17,0.09,-0.26,0.97
2025-02-17 12:14:17,0.09,-0.26,0.97
2025-02-17 12:14:17,0.09,-0.26,0.97
2025-02-17 12:14:17,0.09,-0.26,0.97
2025-02-17 12:14:18,0.09,-0.26,0.97
2025-02-17 12:14:18,0.09,-0.26,0.97
2025-02-17 12:14:18,0.09,-0.26,0.97
2025-02-17 12:14:18,0.09,-0.26,0.97
2025-02-17 12:14:18,0.09,-0.26,0.97
2025-02-17 12:14:18,0.09,-0.26,0.97
2025-02-17 12:14:18,0.09,-0.26,0.97
2025-02-17 12:14:18,0.09,-0.26,0.97
2025-02-17 12:14:18,0.09,-0.26,0.97
2025-02-17 12:14:19,0.09,-0.26,0.97
2025-02-17 12:14:19,0.09,-0.26,0.97
2025-02-17 12:14:19,0.09,-0.26,0.97
2025-02-17 12:14:19,0.09,-0.26,0.97
2025-02-17 12:14:19,0.09,-0.26,0.97
2025-02-17 12:14:19,0.09,-0.26,0.97
2025-02-17 12:14:19,0.09,-0.26,0.97
2025-02-17 12:14:19,0.09,-0.26,0.97
2025-02-17 12:14:19,0.09,-0.26,0.97
2025-02-17 12:14:19,0.09,-0.26,0.97
2025-02-17 12:14:20,0.09,-0.26,0.97
2025-02-17 12:14:20,0.09,-0.26,0.97
2025-02-17 12:14:20,0.09,-0.26,0.97
2025-02-17 12:14:20,0.09,-0.26,0.97
2025-02-17 12:14:20,0.09,-0.26,0.97
2025-02-17 12:14:20,0.09,-0.26,0.97
2025-02-17 12:14:20,0.09,-0.26,0.97
2025-02-17 12:14:20,0.09,-0.26,0.97
2025-02-17 12:14:20,0.07,-0.17,0.97
2025-02-17 12:14:20,0.12,-0.22,0.94
2025-02-17 12:14:21,0.09,-0.28,0.89
2025-02-17 12:14:21,0.11,-0.28,0.92
2025-02-17 12:14:21,0.09,-0.26,0.98
2025-02-17 12:14:21,0.1,-0.26,0.98
2025-02-17 12:14:21,0.09,-0.26,0.98
2025-02-17 12:14:21,0.1,-0.27,0.96
2025-02-17 12:14:21,0.1,-0.26,0.98
2025-02-17 12:14:21,0.1,-0.26,0.97
2025-02-17 12:14:21,0.1,-0.26,0.98
2025-02-17 12:14:22,0.1,-0.26,0.97
2025-02-17 12:14:22,0.1,-0.26,0.98
2025-02-17 12:14:22,0.1,-0.26,0.97
2025-02-17 12:14:22,0.1,-0.26,0.97
2025-02-17 12:14:22,0.1,-0.27,0.97
2025-02-17 12:14:22,0.1,-0.26,0.97
2025-02-17 12:14:22,0.1,-0.27,0.97
2025-02-17 12:14:22,0.1,-0.27,0.97
2025-02-17 12:14:22,0.1,-0.26,0.97
2025-02-17 12:14:22,0.1,-0.26,0.97
2025-02-17 12:14:23,0.1,-0.26,0.98
2025-02-17 12:14:23,0.1,-0.26,0.97
2025-02-17 12:14:23,0.1,-0.25,1.11
2025-02-17 12:14:23,0.12,-0.19,0.74
2025-02-17 12:14:23,0.14,-0.36,0.62
2025-02-17 12:14:23,0.09,-0.22,0.95
2025-02-17 12:14:23,0.13,-0.23,0.93
2025-02-17 12:14:23,0.08,-0.34,0.79
2025-02-17 12:14:23,0.15,-0.24,1.05
2025-02-17 12:14:23,0.12,-0.32,0.79
2025-02-17 12:14:24,0.09,-0.23,1.08
2025-02-17 12:14:24,0.11,-0.25,0.99
2025-02-17 12:14:24,0.11,-0.27,0.95
2025-02-17 12:14:24,0.11,-0.27,0.95
2025-02-17 12:14:24,0.1,-0.26,0.99
2025-02-17 12:14:24,0.11,-0.26,0.97
2025-02-17 12:14:24,0.1,-0.26,0.97
2025-02-17 12:14:24,0.11,-0.26,0.97
2025-02-17 12:14:24,0.11,-0.26,0.97
2025-02-17 12:14:25,0.11,-0.26,0.97
2025-02-17 12:14:25,0.11,-0.26,0.97
2025-02-17 12:14:25,0.11,-0.26,0.97
2025-02-17 12:14:25,0.11,-0.26,0.97
2025-02-17 12:14:25,0.1,-0.26,0.97
2025-02-17 12:14:25,0.11,-0.26,0.97
2025-02-17 12:14:25,0.1,-0.26,0.97
2025-02-17 12:14:25,0.11,-0.26,0.97
2025-02-17 12:14:25,0.11,-0.26,0.97
2025-02-17 12:14:25,0.1,-0.26,0.97
2025-02-17 12:14:26,0.11,-0.26,0.97
2025-02-17 12:14:26,0.11,-0.26,0.97
2025-02-17 12:14:26,0.11,-0.26,0.97
2025-02-17 12:14:26,0.11,-0.26,0.97
2025-02-17 12:14:26,0.11,-0.26,0.97
2025-02-17 12:14:26,0.11,-0.26,0.97
2025-02-17 12:14:26,0.11,-0.26,0.97
2025-02-17 12:14:26,0.11,-0.26,0.97
2025-02-17 12:14:26,0.11,-0.26,0.97
2025-02-17 12:14:26,0.11,-0.26,0.97
2025-02-17 12:14:27,0.11,-0.26,0.97
2025-02-17 12:14:27,0.11,-0.26,0.97
2025-02-17 12:14:27,0.11,-0.26,0.97
2025-02-17 12:14:27,0.11,-0.26,0.97
2025-02-17 12:14:27,0.11,-0.26,0.97
2025-02-17 12:14:27,0.11,-0.26,0.97
2025-02-17 12:14:27,0.11,-0.26,0.97
2025-02-17 12:14:27,0.11,-0.26,0.97
2025-02-17 12:14:27,0.11,-0.26,0.97
2025-02-17 12:14:28,0.11,-0.26,0.97
2025-02-17 12:14:28,0.11,-0.26,0.97
2025-02-17 12:14:28,0.11,-0.26,0.97
2025-02-17 12:14:28,0.11,-0.26,0.97
2025-02-17 12:14:28,0.11,-0.26,0.97
2025-02-17 12:14:28,0.11,-0.26,0.97
2025-02-17 12:14:28,0.11,-0.26,0.97
2025-02-17 12:14:28,0.11,-0.26,0.97
2025-02-17 12:14:28,0.11,-0.26,0.97
2025-02-17 12:14:28,0.11,-0.26,0.97
2025-02-17 12:14:29,0.11,-0.26,0.97
2025-02-17 12:14:29,0.11,-0.26,0.97
2025-02-17 12:14:29,0.11,-0.26,0.97
2025-02-17 12:14:29,0.11,-0.26,0.97
2025-02-17 12:14:29,0.11,-0.26,0.97
2025-02-17 12:14:29,0.11,-0.26,0.97
2025-02-17 12:14:29,0.11,-0.26,0.97
2025-02-17 12:14:29,0.11,-0.26,0.97
2025-02-17 12:14:29,0.11,-0.26,0.97
2025-02-17 12:14:29,0.11,-0.26,0.97
2025-02-17 12:14:30,0.11,-0.26,0.97
2025-02-17 12:14:30,0.11,-0.26,0.97
2025-02-17 12:14:30,0.11,-0.26,0.97
2025-02-17 12:14:30,0.11,-0.26,0.97
2025-02-17 12:14:30,0.11,-0.26,0.97
2025-02-17 12:14:30,0.11,-0.26,0.97
2025-02-17 12:14:30,0.11,-0.26,0.97
2025-02-17 12:14:30,0.11,-0.26,0.97
2025-02-17 12:14:30,0.11,-0.26,0.97
2025-02-17 12:14:31,0.11,-0.26,0.97
2025-02-17 12:14:31,0.11,-0.26,0.97
2025-02-17 12:14:31,0.11,-0.26,0.97
2025-02-17 12:14:31,0.11,-0.26,0.97
2025-02-17 12:14:31,0.11,-0.26,0.97
2025-02-17 12:14:31,0.11,-0.26,0.97
2025-02-17 12:14:31,0.11,-0.26,0.97
2025-02-17 12:14:31,0.11,-0.26,0.97
2025-02-17 12:14:31,0.11,-0.26,0.97
2025-02-17 12:14:31,0.11,-0.26,0.97
2025-02-17 12:14:32,0.11,-0.26,0.97
2025-02-17 12:14:32,0.11,-0.26,0.97
2025-02-17 12:14:32,0.11,-0.26,0.97
2025-02-17 12:14:32,0.11,-0.26,0.97
2025-02-17 12:14:32,0.11,-0.26,0.97
2025-02-17 12:14:32,0.11,-0.26,0.97
2025-02-17 12:14:32,0.11,-0.26,0.97
2025-02-17 12:14:32,0.11,-0.26,0.97
2025-02-17 12:14:32,0.11,-0.26,0.97
2025-02-17 12:14:32,0.11,-0.26,0.97
2025-02-17 12:14:33,0.1,-0.26,0.97
2025-02-17 12:14:33,0.11,-0.26,0.97
2025-02-17 12:14:33,0.11,-0.26,0.97
2025-02-17 12:14:33,0.11,-0.26,0.97
2025-02-17 12:14:33,0.11,-0.26,0.97
2025-02-17 12:14:33,0.11,-0.26,0.97
2025-02-17 12:14:33,0.11,-0.26,0.97
2025-02-17 12:14:33,0.11,-0.26,0.97
2025-02-17 12:14:33,0.11,-0.26,0.97
2025-02-17 12:14:34,0.11,-0.26,0.97
2025-02-17 12:14:34,0.11,-0.26,0.97
2025-02-17 12:14:34,0.11,-0.26,0.97
2025-02-17 12:14:34,0.11,-0.26,0.97
2025-02-17 12:14:34,0.11,-0.26,0.97
2025-02-17 12:14:34,0.11,-0.26,0.97
2025-02-17 12:14:34,0.1,-0.26,0.97
2025-02-17 12:14:34,0.11,-0.26,0.97
2025-02-17 12:14:34,0.11,-0.26,0.97
2025-02-17 12:14:34,0.11,-0.26,0.97
2025-02-17 12:14:35,0.11,-0.26,0.97
2025-02-17 12:14:35,0.11,-0.26,0.97
2025-02-17 12:14:35,0.11,-0.26,0.97
2025-02-17 12:14:35,0.11,-0.26,0.97
2025-02-17 12:14:35,0.11,-0.26,0.97
2025-02-17 12:14:35,0.11,-0.26,0.97
2025-02-17 12:14:35,0.1,-0.26,0.97
2025-02-17 12:14:35,0.11,-0.26,0.97
2025-02-17 12:14:35,0.11,-0.26,0.97
2025-02-17 12:14:35,0.1,-0.26,0.97
2025-02-17 12:14:36,0.11,-0.26,0.97
2025-02-17 12:14:36,0.11,-0.26,0.97
2025-02-17 12:14:36,0.11,-0.26,0.97
2025-02-17 12:14:36,0.11,-0.26,0.97
2025-02-17 12:14:36,0.11,-0.26,0.97
2025-02-17 12:14:36,0.11,-0.26,0.97
2025-02-17 12:14:36,0.11,-0.26,0.97
2025-02-17 12:14:36,0.11,-0.26,0.97
2025-02-17 12:14:36,0.11,-0.26,0.97
2025-02-17 12:14:36,0.11,-0.26,0.97
2025-02-17 12:14:37,0.11,-0.26,0.97
2025-02-17 12:14:37,0.11,-0.26,0.97
2025-02-17 12:14:37,0.11,-0.26,0.97
2025-02-17 12:14:37,0.11,-0.26,0.97
2025-02-17 12:14:37,0.11,-0.26,0.97
2025-02-17 12:14:37,0.11,-0.26,0.97
2025-02-17 12:14:37,0.11,-0.26,0.97
2025-02-17 12:14:37,0.11,-0.26,0.97
2025-02-17 12:14:37,0.11,-0.26,0.97
2025-02-17 12:14:38,0.11,-0.26,0.97
2025-02-17 12:14:38,0.11,-0.26,0.97
2025-02-17 12:14:38,0.11,-0.26,0.97
2025-02-17 12:14:38,0.1,-0.26,0.97
2025-02-17 12:14:38,0.11,-0.26,0.97
2025-02-17 12:14:38,0.11,-0.26,0.97
2025-02-17 12:14:38,0.11,-0.26,0.97
2025-02-17 12:14:38,0.11,-0.26,0.97
2025-02-17 12:14:38,0.11,-0.26,0.97
2025-02-17 12:14:38,0.11,-0.26,0.97
2025-02-17 12:14:39,0.11,-0.26,0.97
2025-02-17 12:14:39,0.1,-0.26,0.97
2025-02-17 12:14:39,0.11,-0.26,0.97
2025-02-17 12:14:39,0.11,-0.26,0.97
2025-02-17 12:14:39,0.11,-0.26,0.97
2025-02-17 12:14:39,0.11,-0.26,0.97
2025-02-17 12:14:39,0.11,-0.26,0.97
2025-02-17 12:14:39,0.11,-0.26,0.97
2025-02-17 12:14:39,0.11,-0.26,0.97
2025-02-17 12:14:39,0.11,-0.26,0.97
2025-02-17 12:14:40,0.1,-0.26,0.97
2025-02-17 12:14:40,0.11,-0.26,0.97
2025-02-17 12:14:40,0.11,-0.26,0.97
2025-02-17 12:14:40,0.11,-0.26,0.97
2025-02-17 12:14:40,0.11,-0.26,0.97
2025-02-17 12:14:40,0.11,-0.26,0.97
2025-02-17 12:14:40,0.11,-0.26,0.97
2025-02-17 12:14:40,0.11,-0.26,0.97
2025-02-17 12:14:40,0.11,-0.26,0.97
2025-02-17 12:14:41,0.11,-0.26,0.97
2025-02-17 12:14:41,0.11,-0.26,0.97
2025-02-17 12:14:41,0.11,-0.26,0.97
2025-02-17 12:14:41,0.11,-0.26,0.97
2025-02-17 12:14:41,0.11,-0.26,0.97
2025-02-17 12:14:41,0.11,-0.26,0.97
2025-02-17 12:14:41,0.11,-0.26,0.97
2025-02-17 12:14:41,0.1,-0.26,0.97
2025-02-17 12:14:41,0.11,-0.26,0.97
2025-02-17 12:14:41,0.11,-0.26,0.97
2025-02-17 12:14:42,0.1,-0.26,0.97
2025-02-17 12:14:42,0.11,-0.26,0.97
2025-02-17 12:14:42,0.11,-0.26,0.97
2025-02-17 12:14:42,0.11,-0.26,0.97
2025-02-17 12:14:42,0.1,-0.26,0.97
2025-02-17 12:14:42,0.11,-0.26,0.97
2025-02-17 12:14:42,0.11,-0.26,0.97
2025-02-17 12:14:42,0.11,-0.26,0.97
2025-02-17 12:14:42,0.11,-0.26,0.97
2025-02-17 12:14:42,0.11,-0.26,0.97
2025-02-17 12:14:43,0.11,-0.26,0.97
2025-02-17 12:14:43,0.11,-0.26,0.97
2025-02-17 12:14:43,0.11,-0.26,0.97
2025-02-17 12:14:43,0.11,-0.26,0.97
2025-02-17 12:14:43,0.11,-0.26,0.97
2025-02-17 12:14:43,0.11,-0.26,0.97
2025-02-17 12:14:43,0.11,-0.26,0.97
2025-02-17 12:14:43,0.11,-0.26,0.97
2025-02-17 12:14:43,0.11,-0.26,0.97
2025-02-17 12:14:43,0.11,-0.26,0.97
2025-02-17 12:14:44,0.1,-0.26,0.97
2025-02-17 12:14:44,0.11,-0.26,0.97
2025-02-17 12:14:44,0.11,-0.26,0.97
2025-02-17 12:14:44,0.11,-0.26,0.97
2025-02-17 12:14:44,0.11,-0.26,0.97
2025-02-17 12:14:44,0.11,-0.26,0.97
2025-02-17 12:14:44,0.11,-0.26,0.97
2025-02-17 12:14:44,0.11,-0.26,0.97
2025-02-17 12:14:44,0.11,-0.26,0.97
2025-02-17 12:14:45,0.11,-0.26,0.97
2025-02-17 12:14:45,0.11,-0.26,0.97
2025-02-17 12:14:45,0.11,-0.26,0.97
2025-02-17 12:14:45,0.11,-0.26,0.97
2025-02-17 12:14:45,0.11,-0.26,0.97
2025-02-17 12:14:45,0.11,-0.26,0.97
2025-02-17 12:14:45,0.11,-0.26,0.97
2025-02-17 12:14:45,0.11,-0.26,0.97
2025-02-17 12:14:45,0.11,-0.26,0.97
2025-02-17 12:14:45,0.11,-0.26,0.97
2025-02-17 12:14:46,0.11,-0.26,0.97
2025-02-17 12:14:46,0.11,-0.26,0.97
2025-02-17 12:14:46,0.11,-0.26,0.97
2025-02-17 12:14:46,0.11,-0.26,0.97
2025-02-17 12:14:46,0.11,-0.26,0.97
2025-02-17 12:14:46,0.11,-0.26,0.97
2025-02-17 12:14:46,0.11,-0.26,0.97
2025-02-17 12:14:46,0.11,-0.26,0.97
2025-02-17 12:14:46,0.11,-0.26,0.97
2025-02-17 12:14:46,0.11,-0.26,0.97
2025-02-17 12:14:47,0.11,-0.26,0.97
2025-02-17 12:14:47,0.11,-0.26,0.97
2025-02-17 12:14:47,0.11,-0.26,0.97
2025-02-17 12:14:47,0.11,-0.26,0.97
2025-02-17 12:14:47,0.11,-0.26,0.97
2025-02-17 12:14:47,0.11,-0.26,0.97
2025-02-17 12:14:47,0.11,-0.26,0.97
2025-02-17 12:14:47,0.11,-0.26,0.97
2025-02-17 12:14:47,0.11,-0.26,0.97
2025-02-17 12:14:48,0.11,-0.26,0.97
2025-02-17 12:14:48,0.11,-0.26,0.97
2025-02-17 12:14:48,0.1,-0.26,0.97
2025-02-17 12:14:48,0.11,-0.26,0.97
2025-02-17 12:14:48,0.11,-0.26,0.97
2025-02-17 12:14:48,0.11,-0.26,0.97
2025-02-17 12:14:48,0.11,-0.26,0.97
2025-02-17 12:14:48,0.11,-0.26,0.97
2025-02-17 12:14:48,0.11,-0.26,0.97
2025-02-17 12:14:48,0.11,-0.26,0.97
2025-02-17 12:14:49,0.11,-0.26,0.97
2025-02-17 12:14:49,0.11,-0.26,0.97
2025-02-17 12:14:49,0.11,-0.26,0.97
2025-02-17 12:14:49,0.11,-0.26,0.97
2025-02-17 12:14:49,0.1,-0.26,0.97
2025-02-17 12:14:49,0.11,-0.26,0.97
2025-02-17 12:14:49,0.11,-0.26,0.97
2025-02-17 12:14:49,0.11,-0.26,0.97
2025-02-17 12:14:49,0.11,-0.26,0.97
2025-02-17 12:14:49,0.11,-0.26,0.97
2025-02-17 12:14:50,0.11,-0.26,0.97
2025-02-17 12:14:50,0.11,-0.26,0.97
2025-02-17 12:14:50,0.11,-0.26,0.97
2025-02-17 12:14:50,0.11,-0.26,0.97
2025-02-17 12:14:50,0.11,-0.26,0.97
2025-02-17 12:14:50,0.1,-0.26,0.97
2025-02-17 12:14:50,0.11,-0.26,0.97
2025-02-17 12:14:50,0.11,-0.26,0.97
2025-02-17 12:14:50,0.11,-0.26,0.97
2025-02-17 12:14:50,0.11,-0.26,0.97
2025-02-17 12:14:51,0.11,-0.26,0.97
2025-02-17 12:14:51,0.11,-0.26,0.97
2025-02-17 12:14:51,0.11,-0.26,0.97
2025-02-17 12:14:51,0.11,-0.26,0.97
2025-02-17 12:14:51,0.11,-0.26,0.97
2025-02-17 12:14:51,0.11,-0.26,0.97
2025-02-17 12:14:51,0.11,-0.26,0.97
2025-02-17 12:14:51,0.11,-0.26,0.97
2025-02-17 12:14:51,0.11,-0.26,0.97
2025-02-17 12:14:52,0.11,-0.26,0.97
2025-02-17 12:14:52,0.11,-0.26,0.97
2025-02-17 12:14:52,0.11,-0.26,0.97
2025-02-17 12:14:52,0.11,-0.26,0.97
2025-02-17 12:14:52,0.11,-0.26,0.97
2025-02-17 12:14:52,0.11,-0.26,0.97
2025-02-17 12:14:52,0.11,-0.26,0.97
2025-02-17 12:14:52,0.11,-0.26,0.97
2025-02-17 12:14:52,0.11,-0.26,0.97
2025-02-17 12:14:52,0.11,-0.26,0.97
2025-02-17 12:14:53,0.11,-0.26,0.97
2025-02-17 12:14:53,0.11,-0.26,0.97
2025-02-17 12:14:53,0.11,-0.26,0.97
2025-02-17 12:14:53,0.11,-0.26,0.97
2025-02-17 12:14:53,0.11,-0.26,0.97
2025-02-17 12:14:53,0.11,-0.26,0.97
2025-02-17 12:14:53,0.11,-0.26,0.97
2025-02-17 12:14:53,0.11,-0.26,0.97
2025-02-17 12:14:53,0.11,-0.26,0.97
2025-02-17 12:14:53,0.11,-0.26,0.97
2025-02-17 12:14:54,0.11,-0.26,0.97
2025-02-17 12:14:54,0.11,-0.26,0.97
2025-02-17 12:14:54,0.11,-0.26,0.97
2025-02-17 12:14:54,0.11,-0.26,0.97
2025-02-17 12:14:54,0.1,-0.26,0.97
2025-02-17 12:14:54,0.11,-0.26,0.97
2025-02-17 12:14:54,0.11,-0.26,0.97
2025-02-17 12:14:54,0.11,-0.26,0.97
2025-02-17 12:14:54,0.11,-0.26,0.97
2025-02-17 12:14:55,0.11,-0.26,0.97
2025-02-17 12:14:55,0.11,-0.26,0.97
2025-02-17 12:14:55,0.11,-0.26,0.97
2025-02-17 12:14:55,0.11,-0.26,0.97
2025-02-17 12:14:55,0.11,-0.26,0.97
2025-02-17 12:14:55,0.11,-0.26,0.97
2025-02-17 12:14:55,0.11,-0.26,0.97
2025-02-17 12:14:55,0.11,-0.26,0.97
2025-02-17 12:14:55,0.11,-0.26,0.97
2025-02-17 12:14:55,0.11,-0.26,0.97
2025-02-17 12:14:56,0.11,-0.26,0.97
2025-02-17 12:14:56,0.11,-0.26,0.97
2025-02-17 12:14:56,0.11,-0.26,0.97
2025-02-17 12:14:56,0.11,-0.26,0.97
2025-02-17 12:14:56,0.11,-0.26,0.97
2025-02-17 12:14:56,0.11,-0.26,0.97
2025-02-17 12:14:56,0.11,-0.26,0.97
2025-02-17 12:14:56,0.11,-0.26,0.97
2025-02-17 12:14:56,0.11,-0.26,0.97
2025-02-17 12:14:56,0.1,-0.26,0.97
2025-02-17 12:14:57,0.11,-0.26,0.97
2025-02-17 12:14:57,0.11,-0.26,0.97
2025-02-17 12:14:57,0.11,-0.26,0.97
2025-02-17 12:14:57,0.11,-0.26,0.97
2025-02-17 12:14:57,0.11,-0.26,0.97
2025-02-17 12:14:57,0.11,-0.26,0.97
2025-02-17 12:14:57,0.11,-0.26,0.97
2025-02-17 12:14:57,0.11,-0.26,0.97
2025-02-17 12:14:57,0.11,-0.26,0.97
2025-02-17 12:14:57,0.11,-0.26,0.97
2025-02-17 12:14:58,0.11,-0.26,0.97
2025-02-17 12:14:58,0.11,-0.26,0.97
2025-02-17 12:14:58,0.11,-0.26,0.97
2025-02-17 12:14:58,0.11,-0.26,0.97
2025-02-17 12:14:58,0.11,-0.26,0.97
2025-02-17 12:14:58,0.11,-0.26,0.97
2025-02-17 12:14:58,0.11,-0.26,0.97
2025-02-17 12:14:58,0.11,-0.26,0.97
2025-02-17 12:14:58,0.11,-0.26,0.97
2025-02-17 12:14:59,0.11,-0.26,0.97
2025-02-17 12:14:59,0.11,-0.26,0.97
2025-02-17 12:14:59,0.11,-0.26,0.97
2025-02-17 12:14:59,0.1,-0.26,0.97
2025-02-17 12:14:59,0.11,-0.26,0.97
2025-02-17 12:14:59,0.11,-0.26,0.97
2025-02-17 12:14:59,0.11,-0.26,0.97
2025-02-17 12:14:59,0.11,-0.26,0.97
2025-02-17 12:14:59,0.11,-0.26,0.97
2025-02-17 12:14:59,0.11,-0.26,0.97
2025-02-17 12:15:00,0.11,-0.26,0.97
2025-02-17 12:15:00,0.11,-0.26,0.97
2025-02-17 12:15:00,0.11,-0.26,0.97
2025-02-17 12:15:00,0.11,-0.26,0.97
2025-02-17 12:15:00,0.11,-0.26,0.97
2025-02-17 12:15:00,0.11,-0.26,0.97
2025-02-17 12:15:00,0.11,-0.26,0.97
2025-02-17 12:15:00,0.11,-0.26,0.97
2025-02-17 12:15:00,0.11,-0.26,0.97
2025-02-17 12:15:00,0.11,-0.26,0.97
2025-02-17 12:15:01,0.11,-0.26,0.97
2025-02-17 12:15:01,0.11,-0.26,0.97
2025-02-17 12:15:01,0.11,-0.26,0.97
2025-02-17 12:15:01,0.11,-0.26,0.97
2025-02-17 12:15:01,0.11,-0.26,0.97
2025-02-17 12:15:01,0.11,-0.26,0.97
2025-02-17 12:15:01,0.11,-0.26,0.97
2025-02-17 12:15:01,0.11,-0.26,0.97
2025-02-17 12:15:01,0.11,-0.26,0.97
2025-02-17 12:15:02,0.11,-0.26,0.97
2025-02-17 12:15:02,0.11,-0.26,0.97
2025-02-17 12:15:02,0.11,-0.26,0.97
2025-02-17 12:15:02,0.11,-0.26,0.97
2025-02-17 12:15:02,0.11,-0.26,0.97
2025-02-17 12:15:02,0.11,-0.26,0.97
2025-02-17 12:15:02,0.11,-0.26,0.97
2025-02-17 12:15:02,0.11,-0.26,0.97
2025-02-17 12:15:02,0.11,-0.26,0.97
2025-02-17 12:15:02,0.11,-0.26,0.97
2025-02-17 12:15:03,0.11,-0.26,0.97
2025-02-17 12:15:03,0.11,-0.26,0.97
2025-02-17 12:15:03,0.11,-0.26,0.97
2025-02-17 12:15:03,0.11,-0.26,0.97
2025-02-17 12:15:03,0.11,-0.26,0.97
2025-02-17 12:15:03,0.11,-0.26,0.97
2025-02-17 12:15:03,0.11,-0.26,0.97
2025-02-17 12:15:03,0.11,-0.26,0.97
2025-02-17 12:15:03,0.11,-0.26,0.97
2025-02-17 12:15:03,0.11,-0.26,0.97
2025-02-17 12:15:04,0.11,-0.26,0.97
2025-02-17 12:15:04,0.11,-0.26,0.97
2025-02-17 12:15:04,0.11,-0.26,0.97
2025-02-17 12:15:04,0.11,-0.26,0.97
2025-02-17 12:15:04,0.11,-0.26,0.97
2025-02-17 12:15:04,0.11,-0.26,0.97
2025-02-17 12:15:04,0.11,-0.26,0.97
2025-02-17 12:15:04,0.11,-0.26,0.97
2025-02-17 12:15:04,0.11,-0.26,0.97
2025-02-17 12:15:05,0.11,-0.26,0.97
2025-02-17 12:15:05,0.11,-0.26,0.97
2025-02-17 12:15:05,0.11,-0.26,0.97
2025-02-17 12:15:05,0.11,-0.26,0.97
2025-02-17 12:15:05,0.11,-0.26,0.97
2025-02-17 12:15:05,0.11,-0.26,0.97
2025-02-17 12:15:05,0.11,-0.26,0.97
2025-02-17 12:15:05,0.11,-0.26,0.97
2025-02-17 12:15:05,0.11,-0.26,0.97
2025-02-17 12:15:05,0.11,-0.26,0.97
2025-02-17 12:15:06,0.11,-0.26,0.97
2025-02-17 12:15:06,0.11,-0.26,0.97
2025-02-17 12:15:06,0.11,-0.26,0.97
2025-02-17 12:15:06,0.11,-0.26,0.97
2025-02-17 12:15:06,0.11,-0.26,0.97
2025-02-17 12:15:06,0.11,-0.26,0.97
2025-02-17 12:15:06,0.11,-0.26,0.97
2025-02-17 12:15:06,0.11,-0.26,0.97
2025-02-17 12:15:06,0.11,-0.26,0.97
2025-02-17 12:15:06,0.11,-0.26,0.97
2025-02-17 12:15:07,0.11,-0.26,0.97
2025-02-17 12:15:07,0.11,-0.26,0.97
2025-02-17 12:15:07,0.11,-0.26,0.97
2025-02-17 12:15:07,0.11,-0.26,0.97
2025-02-17 12:15:07,0.11,-0.26,0.97
2025-02-17 12:15:07,0.11,-0.26,0.97
2025-02-17 12:15:07,0.11,-0.26,0.97
2025-02-17 12:15:07,0.11,-0.26,0.97
2025-02-17 12:15:07,0.11,-0.26,0.97
2025-02-17 12:15:07,0.11,-0.26,0.97
2025-02-17 12:15:08,0.11,-0.26,0.97
2025-02-17 12:15:08,0.11,-0.26,0.97
2025-02-17 12:15:08,0.11,-0.26,0.97
2025-02-17 12:15:08,0.11,-0.26,0.97
2025-02-17 12:15:08,0.11,-0.26,0.97
2025-02-17 12:15:08,0.11,-0.26,0.97
2025-02-17 12:15:08,0.11,-0.26,0.97
2025-02-17 12:15:08,0.11,-0.26,0.97
2025-02-17 12:15:08,0.11,-0.26,0.97
2025-02-17 12:15:09,0.1,-0.26,0.97
2025-02-17 12:15:09,0.11,-0.26,0.97
2025-02-17 12:15:09,0.11,-0.26,0.97
2025-02-17 12:15:09,0.11,-0.26,0.97
2025-02-17 12:15:09,0.11,-0.26,0.97
2025-02-17 12:15:09,0.11,-0.26,0.97
2025-02-17 12:15:09,0.11,-0.26,0.97
2025-02-17 12:15:09,0.11,-0.26,0.97
2025-02-17 12:15:09,0.11,-0.26,0.97
2025-02-17 12:15:09,0.11,-0.26,0.97
2025-02-17 12:15:10,0.11,-0.26,0.97
2025-02-17 12:15:10,0.11,-0.26,0.97
2025-02-17 12:15:10,0.11,-0.26,0.97
2025-02-17 12:15:10,0.11,-0.26,0.97
2025-02-17 12:15:10,0.11,-0.26,0.97
2025-02-17 12:15:10,0.11,-0.26,0.97
2025-02-17 12:15:10,0.11,-0.26,0.97
2025-02-17 12:15:10,0.11,-0.26,0.97
2025-02-17 12:15:10,0.11,-0.26,0.97
2025-02-17 12:15:10,0.11,-0.26,0.97
2025-02-17 12:15:11,0.11,-0.26,0.97
2025-02-17 12:15:11,0.11,-0.26,0.97
2025-02-17 12:15:11,0.11,-0.26,0.97
2025-02-17 12:15:11,0.11,-0.26,0.97
2025-02-17 12:15:11,0.11,-0.26,0.97
2025-02-17 12:15:11,0.11,-0.26,0.97
2025-02-17 12:15:11,0.11,-0.26,0.97
2025-02-17 12:15:11,0.11,-0.26,0.96
2025-02-17 12:15:11,0.11,-0.26,0.97
2025-02-17 12:15:12,0.11,-0.26,0.97
2025-02-17 12:15:12,0.11,-0.26,0.97
2025-02-17 12:15:12,0.11,-0.26,0.97
2025-02-17 12:15:12,0.11,-0.26,0.97
2025-02-17 12:15:12,0.11,-0.26,0.97
2025-02-17 12:15:12,0.11,-0.26,0.97
2025-02-17 12:15:12,0.11,-0.26,0.97
2025-02-17 12:15:12,0.11,-0.26,0.97
2025-02-17 12:15:12,0.11,-0.26,0.98
2025-02-17 12:15:12,0.11,-0.26,0.98
2025-02-17 12:15:13,0.11,-0.26,0.97
2025-02-17 12:15:13,0.11,-0.26,0.97
2025-02-17 12:15:13,0.11,-0.26,0.97
2025-02-17 12:15:13,0.11,-0.26,0.97
2025-02-17 12:15:13,0.11,-0.26,0.97
2025-02-17 12:15:13,0.11,-0.26,0.97
2025-02-17 12:15:13,0.11,-0.26,0.97
2025-02-17 12:15:13,0.11,-0.26,0.97
2025-02-17 12:15:13,0.11,-0.26,0.97
2025-02-17 12:15:13,0.11,-0.26,0.97
2025-02-17 12:15:14,0.1,-0.26,0.97
2025-02-17 12:15:14,0.11,-0.26,0.97
2025-02-17 12:15:14,0.11,-0.26,0.97
2025-02-17 12:15:14,0.11,-0.26,0.97
2025-02-17 12:15:14,0.11,-0.26,0.97
2025-02-17 12:15:14,0.11,-0.26,0.97
2025-02-17 12:15:14,0.11,-0.26,0.97
2025-02-17 12:15:14,0.11,-0.26,0.97
2025-02-17 12:15:14,0.11,-0.26,0.97
2025-02-17 12:15:14,0.11,-0.26,0.97
2025-02-17 12:15:15,0.11,-0.26,0.97
2025-02-17 12:15:15,0.11,-0.26,0.97
2025-02-17 12:15:15,0.11,-0.26,0.97
2025-02-17 12:15:15,0.11,-0.26,0.97
2025-02-17 12:15:15,0.11,-0.26,0.97
2025-02-17 12:15:15,0.11,-0.26,0.97
2025-02-17 12:15:15,0.11,-0.26,0.97
2025-02-17 12:15:15,0.11,-0.26,0.97
2025-02-17 12:15:15,0.11,-0.26,0.97
2025-02-17 12:15:16,0.11,-0.26,0.97
2025-02-17 12:15:16,0.11,-0.26,0.97
2025-02-17 12:15:16,0.11,-0.26,0.97
2025-02-17 12:15:16,0.11,-0.26,0.97
2025-02-17 12:15:16,0.11,-0.26,0.97
2025-02-17 12:15:16,0.11,-0.26,0.97
2025-02-17 12:15:16,0.11,-0.26,0.97
2025-02-17 12:15:16,0.11,-0.26,0.97
2025-02-17 12:15:16,0.11,-0.26,0.97
2025-02-17 12:15:16,0.11,-0.26,0.97
2025-02-17 12:15:17,0.11,-0.26,0.97
2025-02-17 12:15:17,0.1,-0.26,0.97
2025-02-17 12:15:17,0.11,-0.26,0.97
2025-02-17 12:15:17,0.11,-0.26,0.97
2025-02-17 12:15:17,0.11,-0.26,0.97
2025-02-17 12:15:17,0.11,-0.26,0.97
2025-02-17 12:15:17,0.11,-0.26,0.97
2025-02-17 12:15:17,0.11,-0.26,0.97
2025-02-17 12:15:17,0.11,-0.26,0.97
2025-02-17 12:15:17,0.11,-0.26,0.97
2025-02-17 12:15:18,0.11,-0.26,0.97
2025-02-17 12:15:18,0.11,-0.26,0.97
2025-02-17 12:15:18,0.11,-0.26,0.97
2025-02-17 12:15:18,0.11,-0.26,0.97
2025-02-17 12:15:18,0.11,-0.26,0.97
2025-02-17 12:15:18,0.11,-0.26,0.97
2025-02-17 12:15:18,0.11,-0.26,0.97
2025-02-17 12:15:18,0.11,-0.26,0.97
2025-02-17 12:15:18,0.11,-0.26,0.97
2025-02-17 12:15:18,0.11,-0.26,0.97
2025-02-17 12:15:19,0.11,-0.26,0.97
2025-02-17 12:15:19,0.11,-0.26,0.97
2025-02-17 12:15:19,0.11,-0.26,0.97
2025-02-17 12:15:19,0.11,-0.26,0.97
2025-02-17 12:15:19,0.11,-0.26,0.97
2025-02-17 12:15:19,0.11,-0.26,0.97
2025-02-17 12:15:19,0.11,-0.26,0.97
2025-02-17 12:15:19,0.11,-0.26,0.97
2025-02-17 12:15:19,0.11,-0.26,0.97
2025-02-17 12:15:20,0.11,-0.26,0.97
2025-02-17 12:15:20,0.11,-0.26,0.97
2025-02-17 12:15:20,0.11,-0.26,0.97
2025-02-17 12:15:20,0.11,-0.26,0.97
2025-02-17 12:15:20,0.11,-0.26,0.97
2025-02-17 12:15:20,0.11,-0.26,0.97
2025-02-17 12:15:20,0.11,-0.26,0.97
2025-02-17 12:15:20,0.11,-0.26,0.97
2025-02-17 12:15:20,0.11,-0.26,0.97
2025-02-17 12:15:20,0.11,-0.26,0.97
2025-02-17 12:15:21,0.11,-0.26,0.97
2025-02-17 12:15:21,0.11,-0.26,0.97
2025-02-17 12:15:21,0.11,-0.26,0.97
2025-02-17 12:15:21,0.11,-0.26,0.97
2025-02-17 12:15:21,0.11,-0.26,0.97
2025-02-17 12:15:21,0.11,-0.26,0.97
2025-02-17 12:15:21,0.1,-0.26,0.97
2025-02-17 12:15:21,0.11,-0.26,0.97
2025-02-17 12:15:21,0.11,-0.26,0.97
2025-02-17 12:15:21,0.11,-0.26,0.97
2025-02-17 12:15:22,0.11,-0.26,0.97
2025-02-17 12:15:22,0.11,-0.26,0.97
2025-02-17 12:15:22,0.11,-0.26,0.97
2025-02-17 12:15:22,0.11,-0.26,0.97
2025-02-17 12:15:22,0.11,-0.26,0.97
2025-02-17 12:15:22,0.11,-0.26,0.97
2025-02-17 12:15:22,0.11,-0.26,0.97
2025-02-17 12:15:22,0.11,-0.26,0.97
2025-02-17 12:15:22,0.11,-0.26,0.97
2025-02-17 12:15:23,0.11,-0.26,0.97
2025-02-17 12:15:23,0.11,-0.26,0.97
2025-02-17 12:15:23,0.11,-0.26,0.97
2025-02-17 12:15:23,0.11,-0.26,0.97
2025-02-17 12:15:23,0.11,-0.26,0.97
2025-02-17 12:15:23,0.11,-0.26,0.97
2025-02-17 12:15:23,0.11,-0.26,0.97
2025-02-17 12:15:23,0.11,-0.26,0.97
2025-02-17 12:15:23,0.11,-0.26,0.97
2025-02-17 12:15:23,0.11,-0.26,0.97
2025-02-17 12:15:24,0.11,-0.26,0.97
2025-02-17 12:15:24,0.11,-0.26,0.97
2025-02-17 12:15:24,0.11,-0.26,0.97
2025-02-17 12:15:24,0.11,-0.26,0.97
2025-02-17 12:15:24,0.11,-0.26,0.97
2025-02-17 12:15:24,0.11,-0.26,0.97
2025-02-17 12:15:24,0.11,-0.26,0.97
2025-02-17 12:15:24,0.11,-0.26,0.97
2025-02-17 12:15:24,0.11,-0.26,0.97
2025-02-17 12:15:24,0.11,-0.26,0.97
2025-02-17 12:15:25,0.11,-0.26,0.97
2025-02-17 12:15:25,0.11,-0.26,0.97
2025-02-17 12:15:25,0.11,-0.26,0.97
2025-02-17 12:15:25,0.11,-0.26,0.97
2025-02-17 12:15:25,0.11,-0.26,0.97
2025-02-17 12:15:25,0.11,-0.26,0.97
2025-02-17 12:15:25,0.11,-0.26,0.97
2025-02-17 12:15:25,0.11,-0.26,0.97
2025-02-17 12:15:25,0.11,-0.26,0.97
2025-02-17 12:15:25,0.11,-0.26,0.97
2025-02-17 12:15:26,0.11,-0.26,0.97
2025-02-17 12:15:26,0.11,-0.26,0.97
2025-02-17 12:15:26,0.11,-0.26,0.97
2025-02-17 12:15:26,0.11,-0.26,0.97
2025-02-17 12:15:26,0.11,-0.26,0.97
2025-02-17 12:15:26,0.11,-0.26,0.97
2025-02-17 12:15:26,0.11,-0.26,0.97
2025-02-17 12:15:26,0.11,-0.26,0.97
2025-02-17 12:15:26,0.11,-0.26,0.97
2025-02-17 12:15:27,0.11,-0.26,0.97
2025-02-17 12:15:27,0.11,-0.26,0.97
2025-02-17 12:15:27,0.11,-0.26,0.97
2025-02-17 12:15:27,0.11,-0.26,0.97
2025-02-17 12:15:27,0.11,-0.26,0.97
2025-02-17 12:15:27,0.11,-0.26,0.97
2025-02-17 12:15:27,0.11,-0.26,0.97
2025-02-17 12:15:27,0.11,-0.26,0.97
2025-02-17 12:15:27,0.11,-0.26,0.97
2025-02-17 12:15:27,0.11,-0.26,0.97
2025-02-17 12:15:28,0.11,-0.26,0.97
2025-02-17 12:15:28,0.11,-0.26,0.97
2025-02-17 12:15:28,0.11,-0.26,0.97
2025-02-17 12:15:28,0.11,-0.26,0.97
2025-02-17 12:15:28,0.11,-0.26,0.97
2025-02-17 12:15:28,0.11,-0.26,0.97
2025-02-17 12:15:28,0.11,-0.26,0.97
2025-02-17 12:15:28,0.11,-0.26,0.97
2025-02-17 12:15:28,0.11,-0.26,0.97
2025-02-17 12:15:28,0.11,-0.26,0.97
2025-02-17 12:15:29,0.11,-0.26,0.97
2025-02-17 12:15:29,0.11,-0.26,0.97
2025-02-17 12:15:29,0.11,-0.26,0.97
2025-02-17 12:15:29,0.11,-0.26,0.97
2025-02-17 12:15:29,0.11,-0.26,0.97
2025-02-17 12:15:29,0.11,-0.26,0.97
2025-02-17 12:15:29,0.11,-0.26,0.97
2025-02-17 12:15:29,0.11,-0.26,0.97
2025-02-17 12:15:29,0.11,-0.26,0.97
2025-02-17 12:15:30,0.11,-0.26,0.97
2025-02-17 12:15:30,0.11,-0.26,0.97
2025-02-17 12:15:30,0.11,-0.26,0.97
2025-02-17 12:15:30,0.11,-0.26,0.97
2025-02-17 12:15:30,0.11,-0.26,0.97
2025-02-17 12:15:30,0.11,-0.26,0.97
2025-02-17 12:15:30,0.11,-0.26,0.97
2025-02-17 12:15:30,0.11,-0.26,0.97
2025-02-17 12:15:30,0.11,-0.26,0.97
2025-02-17 12:15:30,0.11,-0.26,0.97
2025-02-17 12:15:31,0.11,-0.26,0.97
2025-02-17 12:15:31,0.11,-0.26,0.97
2025-02-17 12:15:31,0.11,-0.26,0.97
2025-02-17 12:15:31,0.11,-0.26,0.97
2025-02-17 12:15:31,0.11,-0.26,0.97
2025-02-17 12:15:31,0.11,-0.26,0.97
2025-02-17 12:15:31,0.11,-0.26,0.97
2025-02-17 12:15:31,0.11,-0.26,0.97
2025-02-17 12:15:31,0.11,-0.26,0.97
2025-02-17 12:15:31,0.11,-0.26,0.97
2025-02-17 12:15:32,0.11,-0.26,0.97
2025-02-17 12:15:32,0.11,-0.26,0.97
2025-02-17 12:15:32,0.11,-0.26,0.97
2025-02-17 12:15:32,0.11,-0.26,0.97
2025-02-17 12:15:32,0.11,-0.26,0.97
2025-02-17 12:15:32,0.11,-0.26,0.97
2025-02-17 12:15:32,0.11,-0.26,0.97
2025-02-17 12:15:32,0.11,-0.26,0.97
2025-02-17 12:15:32,0.11,-0.26,0.97
2025-02-17 12:15:32,0.11,-0.26,0.97
2025-02-17 12:15:33,0.11,-0.26,0.97
2025-02-17 12:15:33,0.11,-0.26,0.97
2025-02-17 12:15:33,0.11,-0.26,0.97
2025-02-17 12:15:33,0.11,-0.26,0.97
2025-02-17 12:15:33,0.11,-0.26,0.97
2025-02-17 12:15:33,0.11,-0.26,0.97
2025-02-17 12:15:33,0.11,-0.26,0.97
2025-02-17 12:15:33,0.11,-0.26,0.97
2025-02-17 12:15:33,0.11,-0.26,0.97
2025-02-17 12:15:34,0.11,-0.26,0.97
2025-02-17 12:15:34,0.11,-0.26,0.97
2025-02-17 12:15:34,0.11,-0.26,0.97
2025-02-17 12:15:34,0.11,-0.26,0.97
2025-02-17 12:15:34,0.11,-0.26,0.97
2025-02-17 12:15:34,0.11,-0.26,0.97
2025-02-17 12:15:34,0.11,-0.26,0.97
2025-02-17 12:15:34,0.11,-0.26,0.97
2025-02-17 12:15:34,0.11,-0.26,0.97
2025-02-17 12:15:34,0.11,-0.26,0.97
2025-02-17 12:15:35,0.11,-0.26,0.97
2025-02-17 12:15:35,0.11,-0.26,0.97
2025-02-17 12:15:35,0.11,-0.26,0.97
2025-02-17 12:15:35,0.11,-0.26,0.97
2025-02-17 12:15:35,0.11,-0.26,0.97
2025-02-17 12:15:35,0.11,-0.26,0.97
2025-02-17 12:15:35,0.11,-0.26,0.97
2025-02-17 12:15:35,0.11,-0.26,0.97
2025-02-17 12:15:35,0.11,-0.26,0.97
2025-02-17 12:15:35,0.11,-0.26,0.97
2025-02-17 12:15:36,0.11,-0.26,0.97
2025-02-17 12:15:36,0.11,-0.26,0.97
2025-02-17 12:15:36,0.11,-0.26,0.97
2025-02-17 12:15:36,0.11,-0.26,0.97
2025-02-17 12:15:36,0.11,-0.26,0.97
2025-02-17 12:15:36,0.11,-0.26,0.97
2025-02-17 12:15:36,0.11,-0.26,0.97
2025-02-17 12:15:36,0.11,-0.26,0.97
2025-02-17 12:15:36,0.11,-0.26,0.97
2025-02-17 12:15:37,0.11,-0.26,0.97
2025-02-17 12:15:37,0.11,-0.26,0.97
2025-02-17 12:15:37,0.11,-0.26,0.97
2025-02-17 12:15:37,0.11,-0.26,0.97
2025-02-17 12:15:37,0.11,-0.26,0.97
2025-02-17 12:15:37,0.11,-0.26,0.97
2025-02-17 12:15:37,0.11,-0.26,0.97
2025-02-17 12:15:37,0.11,-0.26,0.97
2025-02-17 12:15:37,0.11,-0.26,0.97
2025-02-17 12:15:37,0.11,-0.26,0.97
2025-02-17 12:15:38,0.11,-0.26,0.97
2025-02-17 12:15:38,0.11,-0.26,0.97
2025-02-17 12:15:38,0.11,-0.26,0.97
2025-02-17 12:15:38,0.11,-0.26,0.97
2025-02-17 12:15:38,0.11,-0.26,0.97
2025-02-17 12:15:38,0.11,-0.26,0.97
2025-02-17 12:15:38,0.11,-0.26,0.97
2025-02-17 12:15:38,0.11,-0.26,0.97
2025-02-17 12:15:38,0.11,-0.26,0.97
2025-02-17 12:15:38,0.11,-0.26,0.97
2025-02-17 12:15:39,0.11,-0.26,0.97
2025-02-17 12:15:39,0.11,-0.26,0.97
2025-02-17 12:15:39,0.11,-0.26,0.97
2025-02-17 12:15:39,0.11,-0.26,0.97
2025-02-17 12:15:39,0.11,-0.26,0.97
2025-02-17 12:15:39,0.11,-0.26,0.97
2025-02-17 12:15:39,0.11,-0.26,0.97
2025-02-17 12:15:39,0.11,-0.26,0.97
2025-02-17 12:15:39,0.11,-0.26,0.97
2025-02-17 12:15:40,0.11,-0.26,0.97
2025-02-17 12:15:40,0.11,-0.26,0.97
2025-02-17 12:15:40,0.11,-0.26,0.97
2025-02-17 12:15:40,0.11,-0.26,0.97
2025-02-17 12:15:40,0.11,-0.26,0.97
2025-02-17 12:15:40,0.11,-0.26,0.97
2025-02-17 12:15:40,0.11,-0.26,0.97
2025-02-17 12:15:40,0.11,-0.26,0.97
2025-02-17 12:15:40,0.11,-0.26,0.97
2025-02-17 12:15:40,0.11,-0.26,0.97
2025-02-17 12:15:41,0.11,-0.26,0.97
2025-02-17 12:15:41,0.11,-0.26,0.97
2025-02-17 12:15:41,0.11,-0.26,0.97
2025-02-17 12:15:41,0.11,-0.26,0.97
2025-02-17 12:15:41,0.11,-0.26,0.97
2025-02-17 12:15:41,0.11,-0.26,0.97
2025-02-17 12:15:41,0.1,-0.26,0.97
2025-02-17 12:15:41,0.11,-0.26,0.97
2025-02-17 12:15:41,0.11,-0.26,0.97
2025-02-17 12:15:41,0.11,-0.26,0.97
2025-02-17 12:15:42,0.11,-0.26,0.97
2025-02-17 12:15:42,0.11,-0.26,0.97
2025-02-17 12:15:42,0.11,-0.26,0.97
2025-02-17 12:15:42,0.11,-0.26,0.97
2025-02-17 12:15:42,0.11,-0.26,0.97
2025-02-17 12:15:42,0.11,-0.26,0.97
2025-02-17 12:15:42,0.11,-0.26,0.97
2025-02-17 12:15:42,0.11,-0.26,0.97
2025-02-17 12:15:42,0.11,-0.26,0.97
2025-02-17 12:15:42,0.11,-0.26,0.97
2025-02-17 12:15:43,0.11,-0.26,0.97
2025-02-17 12:15:43,0.11,-0.26,0.97
2025-02-17 12:15:43,0.11,-0.26,0.97
2025-02-17 12:15:43,0.11,-0.26,0.97
2025-02-17 12:15:43,0.11,-0.26,0.97
2025-02-17 12:15:43,0.11,-0.26,0.97
2025-02-17 12:15:43,0.11,-0.26,0.97
2025-02-17 12:15:43,0.11,-0.26,0.97
2025-02-17 12:15:43,0.11,-0.26,0.97
2025-02-17 12:15:44,0.1,-0.26,0.97
2025-02-17 12:15:44,0.11,-0.26,0.97
2025-02-17 12:15:44,0.11,-0.26,0.97
2025-02-17 12:15:44,0.1,-0.26,0.97
2025-02-17 12:15:44,0.11,-0.26,0.98
2025-02-17 12:15:44,0.11,-0.26,0.97
2025-02-17 12:15:44,0.11,-0.26,0.97
2025-02-17 12:15:44,0.11,-0.26,0.97
2025-02-17 12:15:44,0.11,-0.26,0.97
2025-02-17 12:15:44,0.11,-0.26,0.97
2025-02-17 12:15:45,0.11,-0.26,0.97
2025-02-17 12:15:45,0.11,-0.26,0.97
2025-02-17 12:15:45,0.11,-0.26,0.97
2025-02-17 12:15:45,0.11,-0.26,0.97
2025-02-17 12:15:45,0.11,-0.26,0.97
2025-02-17 12:15:45,0.11,-0.26,0.97
2025-02-17 12:15:45,0.11,-0.26,0.97
2025-02-17 12:15:45,0.11,-0.26,0.97
2025-02-17 12:15:45,0.11,-0.26,0.97
2025-02-17 12:15:45,0.11,-0.26,0.97
2025-02-17 12:15:46,0.11,-0.26,0.97
2025-02-17 12:15:46,0.11,-0.26,0.97
2025-02-17 12:15:46,0.11,-0.26,0.97
2025-02-17 12:15:46,0.11,-0.26,0.97
2025-02-17 12:15:46,0.11,-0.26,0.97
2025-02-17 12:15:46,0.11,-0.26,0.97
2025-02-17 12:15:46,0.11,-0.26,0.97
2025-02-17 12:15:46,0.11,-0.26,0.97
2025-02-17 12:15:46,0.11,-0.26,0.97
2025-02-17 12:15:47,0.11,-0.26,0.97
2025-02-17 12:15:47,0.11,-0.26,0.97
2025-02-17 12:15:47,0.11,-0.26,0.97
2025-02-17 12:15:47,0.11,-0.26,0.97
2025-02-17 12:15:47,0.11,-0.26,0.97
2025-02-17 12:15:47,0.11,-0.26,0.97
2025-02-17 12:15:47,0.11,-0.26,0.97
2025-02-17 12:15:47,0.11,-0.26,0.97
2025-02-17 12:15:47,0.11,-0.26,0.97
2025-02-17 12:15:47,0.11,-0.26,0.97
2025-02-17 12:15:48,0.11,-0.26,0.97
2025-02-17 12:15:48,0.11,-0.26,0.97
2025-02-17 12:15:48,0.11,-0.26,0.97
2025-02-17 12:15:48,0.11,-0.26,0.97
2025-02-17 12:15:48,0.11,-0.26,0.97
2025-02-17 12:15:48,0.1,-0.26,0.97
2025-02-17 12:15:48,0.11,-0.26,0.97
2025-02-17 12:15:48,0.11,-0.26,0.97
2025-02-17 12:15:48,0.11,-0.26,0.97
2025-02-17 12:15:48,0.11,-0.26,0.97
2025-02-17 12:15:49,0.11,-0.26,0.97
2025-02-17 12:15:49,0.11,-0.26,0.97
2025-02-17 12:15:49,0.11,-0.26,0.97
2025-02-17 12:15:49,0.11,-0.26,0.97
2025-02-17 12:15:49,0.11,-0.26,0.97
2025-02-17 12:15:49,0.11,-0.26,0.97
2025-02-17 12:15:49,0.11,-0.26,0.97
2025-02-17 12:15:49,0.11,-0.26,0.97
2025-02-17 12:15:49,0.11,-0.26,0.97
2025-02-17 12:15:49,0.11,-0.26,0.97
2025-02-17 12:15:50,0.11,-0.26,0.97
2025-02-17 12:15:50,0.11,-0.26,0.97
2025-02-17 12:15:50,0.11,-0.26,0.97
2025-02-17 12:15:50,0.11,-0.26,0.97
2025-02-17 12:15:50,0.1,-0.26,0.97
2025-02-17 12:15:50,0.11,-0.26,0.97
2025-02-17 12:15:50,0.11,-0.26,0.97
2025-02-17 12:15:50,0.11,-0.26,0.97
2025-02-17 12:15:50,0.11,-0.26,0.97
2025-02-17 12:15:51,0.11,-0.26,0.97
2025-02-17 12:15:51,0.11,-0.26,0.97
2025-02-17 12:15:51,0.11,-0.26,0.97
2025-02-17 12:15:51,0.11,-0.26,0.97
2025-02-17 12:15:51,0.11,-0.26,0.97
2025-02-17 12:15:51,0.11,-0.26,0.97
2025-02-17 12:15:51,0.11,-0.26,0.97
2025-02-17 12:15:51,0.11,-0.26,0.97
2025-02-17 12:15:51,0.11,-0.26,0.97
2025-02-17 12:15:51,0.11,-0.26,0.97
2025-02-17 12:15:52,0.11,-0.26,0.97
2025-02-17 12:15:52,0.11,-0.26,0.97
2025-02-17 12:15:52,0.11,-0.26,0.97
2025-02-17 12:15:52,0.11,-0.26,0.97
2025-02-17 12:15:52,0.11,-0.26,0.97
2025-02-17 12:15:52,0.05,-0.28,0.97
2025-02-17 12:15:52,0.08,-0.28,0.89
2025-02-17 12:15:52,0.1,-0.24,1.0
2025-02-17 12:15:52,0.1,-0.25,0.98
2025-02-17 12:15:52,0.1,-0.25,0.97
2025-02-17 12:15:53,0.1,-0.25,0.97
2025-02-17 12:15:53,0.1,-0.25,0.97
2025-02-17 12:15:53,0.09,-0.25,0.98
2025-02-17 12:15:53,0.1,-0.25,0.97
2025-02-17 12:15:53,0.09,-0.26,0.97
2025-02-17 12:15:53,0.1,-0.25,0.98
